Time,header.seq,header.stamp.secs,header.stamp.nsecs,header.frame_id,orientation.x,orientation.y,orientation.z,orientation.w,orientation_covariance_0,orientation_covariance_1,orientation_covariance_2,orientation_covariance_3,orientation_covariance_4,orientation_covariance_5,orientation_covariance_6,orientation_covariance_7,orientation_covariance_8,angular_velocity.x,angular_velocity.y,angular_velocity.z,angular_velocity_covariance_0,angular_velocity_covariance_1,angular_velocity_covariance_2,angular_velocity_covariance_3,angular_velocity_covariance_4,angular_velocity_covariance_5,angular_velocity_covariance_6,angular_velocity_covariance_7,angular_velocity_covariance_8,linear_acceleration.x,linear_acceleration.y,linear_acceleration.z,linear_acceleration_covariance_0,linear_acceleration_covariance_1,linear_acceleration_covariance_2,linear_acceleration_covariance_3,linear_acceleration_covariance_4,linear_acceleration_covariance_5,linear_acceleration_covariance_6,linear_acceleration_covariance_7,linear_acceleration_covariance_8
1615407366.002,0,1615407366,2000093,,0.0013547641994003825,-0.002026617163464311,-0.749112970668371,0.6624377816921715,-1.0,0.0,0.0,0.0,0.0,0.0,0.0,0.0,0.0,-0.00025635211880098717,-0.00019191387791744563,-0.0003969741095584978,-1.0,0.0,0.0,0.0,0.0,0.0,0.0,0.0,0.0,0.0,0.0,0.0,-1.0,0.0,0.0,0.0,0.0,0.0,0.0,0.0,0.0
1615407366.022,0,1615407366,22000074,,0.0013567405360289755,-0.0020325285826340517,-0.7491129632457001,0.6624377679298827,-1.0,0.0,0.0,0.0,0.0,0.0,0.0,0.0,0.0,2.7934205886259485e-05,-0.00022098344779152576,-0.0003729151411696935,-1.0,0.0,0.0,0.0,0.0,0.0,0.0,0.0,0.0,0.0,0.0,0.0,-1.0,0.0,0.0,0.0,0.0,0.0,0.0,0.0,0.0
1615407366.042,0,1615407366,42000055,,0.001359258323309281,-0.0020296184819023995,-0.7491128882916759,0.6624378564521594,-1.0,0.0,0.0,0.0,0.0,0.0,0.0,0.0,0.0,-1.1781904625636784e-05,-2.5697273627250586e-06,-0.0004797604030860703,-1.0,0.0,0.0,0.0,0.0,0.0,0.0,0.0,0.0,0.0,0.0,0.0,-1.0,0.0,0.0,0.0,0.0,0.0,0.0,0.0,0.0
1615407366.062,0,1615407366,62000036,,0.0013785858351174384,-0.0020390143002202705,-0.7491126427448958,0.6624380653325538,-1.0,0.0,0.0,0.0,0.0,0.0,0.0,0.0,0.0,0.00022230919676559152,0.00010808696536094646,-0.0002111016905942965,-1.0,0.0,0.0,0.0,0.0,0.0,0.0,0.0,0.0,0.0,0.0,0.0,-1.0,0.0,0.0,0.0,0.0,0.0,0.0,0.0,0.0
1615407366.082,0,1615407366,82000017,,0.0013764223075121288,-0.0020402451955072146,-0.7491127252707382,0.6624379727179152,-1.0,0.0,0.0,0.0,0.0,0.0,0.0,0.0,0.0,0.00013840324508913027,-1.5588616692613954e-06,-0.00015982432008376275,-1.0,0.0,0.0,0.0,0.0,0.0,0.0,0.0,0.0,0.0,0.0,0.0,-1.0,0.0,0.0,0.0,0.0,0.0,0.0,0.0,0.0
1615407366.102,0,1615407366,101999998,,0.001381010617359668,-0.0020396763498699965,-0.7491126135275068,0.6624380912840465,-1.0,0.0,0.0,0.0,0.0,0.0,0.0,0.0,0.0,0.00017446087179882587,0.0001426532923425882,0.00022507172129445074,-1.0,0.0,0.0,0.0,0.0,0.0,0.0,0.0,0.0,0.0,0.0,0.0,-1.0,0.0,0.0,0.0,0.0,0.0,0.0,0.0,0.0
1615407366.122,0,1615407366,121999979,,0.001381458383602043,-0.0020344254642017732,-0.7491124373006345,0.662438305781956,-1.0,0.0,0.0,0.0,0.0,0.0,0.0,0.0,0.0,-4.386948013908849e-06,0.00023489791693690257,-0.0001212619460067797,-1.0,0.0,0.0,0.0,0.0,0.0,0.0,0.0,0.0,0.0,0.0,0.0,-1.0,0.0,0.0,0.0,0.0,0.0,0.0,0.0,0.0
1615407366.142,0,1615407366,141999960,,0.0013790246183624756,-0.0020400670665140074,-0.7491125701634416,0.6624381432560997,-1.0,0.0,0.0,0.0,0.0,0.0,0.0,0.0,0.0,0.00011579575779286672,-5.3464746491066446e-05,-1.2155248507190298e-05,-1.0,0.0,0.0,0.0,0.0,0.0,0.0,0.0,0.0,0.0,0.0,0.0,-1.0,0.0,0.0,0.0,0.0,0.0,0.0,0.0,0.0
1615407366.162,0,1615407366,161999941,,0.0013774027370913808,-0.002032476088667355,-0.7491125189011,0.6624382279339697,-1.0,0.0,0.0,0.0,0.0,0.0,0.0,0.0,0.0,-0.00014521972987610393,8.357832039304089e-05,0.0002779092399259484,-1.0,0.0,0.0,0.0,0.0,0.0,0.0,0.0,0.0,0.0,0.0,0.0,-1.0,0.0,0.0,0.0,0.0,0.0,0.0,0.0,0.0
1615407366.182,0,1615407366,181999922,,0.0013684871822893243,-0.002035506663956376,-0.7491124535959474,0.662438310956509,-1.0,0.0,0.0,0.0,0.0,0.0,0.0,0.0,0.0,-0.00018021790376618565,-0.00024387616828574755,0.00027348762255315285,-1.0,0.0,0.0,0.0,0.0,0.0,0.0,0.0,0.0,0.0,0.0,0.0,-1.0,0.0,0.0,0.0,0.0,0.0,0.0,0.0,0.0
1615407366.202,0,1615407366,201999903,,0.0013665944199232605,-0.002032327702973559,-0.7491123037385778,0.6624384940892851,-1.0,0.0,0.0,0.0,0.0,0.0,0.0,0.0,0.0,-0.00023703450907527928,-0.00015385972038144897,2.419684312115572e-05,-1.0,0.0,0.0,0.0,0.0,0.0,0.0,0.0,0.0,0.0,0.0,0.0,-1.0,0.0,0.0,0.0,0.0,0.0,0.0,0.0,0.0
1615407366.222,0,1615407366,221999884,,0.0013579504190188198,-0.0020309477560377298,-0.7491123811156378,0.6624384285962969,-1.0,0.0,0.0,0.0,0.0,0.0,0.0,0.0,0.0,-0.0003993026494832196,-0.00029842245255604224,-0.00010674935410401142,-1.0,0.0,0.0,0.0,0.0,0.0,0.0,0.0,0.0,0.0,0.0,0.0,-1.0,0.0,0.0,0.0,0.0,0.0,0.0,0.0,0.0
1615407366.242,0,1615407366,242000103,,0.0013583993092380505,-0.0020256986224744234,-0.7491123952508134,0.6624384277636653,-1.0,0.0,0.0,0.0,0.0,0.0,0.0,0.0,0.0,-0.0003818915537115675,-3.0776831242843944e-05,-0.0001039096582610372,-1.0,0.0,0.0,0.0,0.0,0.0,0.0,0.0,0.0,0.0,0.0,0.0,-1.0,0.0,0.0,0.0,0.0,0.0,0.0,0.0,0.0
1615407366.262,0,1615407366,262000084,,0.0013585771411270637,-0.0020248605274173093,-0.7491123189995539,0.662438516189319,-1.0,0.0,0.0,0.0,0.0,0.0,0.0,0.0,0.0,-0.00030309603436346524,1.983443057871488e-05,-6.581021979643899e-05,-1.0,0.0,0.0,0.0,0.0,0.0,0.0,0.0,0.0,0.0,0.0,0.0,-1.0,0.0,0.0,0.0,0.0,0.0,0.0,0.0,0.0
1615407366.282,0,1615407366,282000065,,0.001354345681302021,-0.002023751502093791,-0.7491126339336938,0.662438172102542,-1.0,0.0,0.0,0.0,0.0,0.0,0.0,0.0,0.0,-0.000341366088000485,-8.208287590102888e-05,0.0002402877690380907,-1.0,0.0,0.0,0.0,0.0,0.0,0.0,0.0,0.0,0.0,0.0,0.0,-1.0,0.0,0.0,0.0,0.0,0.0,0.0,0.0,0.0
1615407366.302,0,1615407366,302000046,,0.0013568660540120808,-0.0020208431360374765,-0.7491127602960423,0.6624380329277413,-1.0,0.0,0.0,0.0,0.0,0.0,0.0,0.0,0.0,-0.0002539816007139664,7.731484863158467e-05,-0.00015738313377151565,-1.0,0.0,0.0,0.0,0.0,0.0,0.0,0.0,0.0,0.0,0.0,0.0,-1.0,0.0,0.0,0.0,0.0,0.0,0.0,0.0,0.0
1615407366.322,0,1615407366,322000027,,0.0013627331212391295,-0.0020208158809336303,-0.749112627178565,0.6624381715022498,-1.0,0.0,0.0,0.0,0.0,0.0,0.0,0.0,0.0,-0.0005229204259811532,6.699745085530644e-05,-0.00022828621121842767,-1.0,0.0,0.0,0.0,0.0,0.0,0.0,0.0,0.0,0.0,0.0,0.0,-1.0,0.0,0.0,0.0,0.0,0.0,0.0,0.0,0.0
1615407366.342,0,1615407366,342000008,,0.0013584998313433472,-0.002019707279195415,-0.7491125338924445,0.662438289069975,-1.0,0.0,0.0,0.0,0.0,0.0,0.0,0.0,0.0,-0.00043924128215268576,-2.851981817094163e-05,-0.00017358701113983548,-1.0,0.0,0.0,0.0,0.0,0.0,0.0,0.0,0.0,0.0,0.0,0.0,-1.0,0.0,0.0,0.0,0.0,0.0,0.0,0.0,0.0
1615407366.362,0,1615407366,361999989,,0.0013604773136443352,-0.002025621326052559,-0.7491124189036441,0.6624383969880172,-1.0,0.0,0.0,0.0,0.0,0.0,0.0,0.0,0.0,-5.809103912894636e-05,-0.00013517061751694578,8.076211171649212e-05,-1.0,0.0,0.0,0.0,0.0,0.0,0.0,0.0,0.0,0.0,0.0,0.0,-1.0,0.0,0.0,0.0,0.0,0.0,0.0,0.0,0.0
1615407366.382,0,1615407366,381999969,,0.0013650671587996845,-0.002025053514199361,-0.7491123072264401,0.6624385155709142,-1.0,0.0,0.0,0.0,0.0,0.0,0.0,0.0,0.0,6.935368387785194e-05,4.250708852332373e-05,-8.099498567351604e-05,-1.0,0.0,0.0,0.0,0.0,0.0,0.0,0.0,0.0,0.0,0.0,0.0,-1.0,0.0,0.0,0.0,0.0,0.0,0.0,0.0,0.0
1615407366.402,0,1615407366,401999950,,0.0013629060573944745,-0.0020262846461693985,-0.7491123069203298,0.6624385166021924,-1.0,0.0,0.0,0.0,0.0,0.0,0.0,0.0,0.0,3.923682576657009e-05,-4.451825957634808e-05,0.00018662536158066913,-1.0,0.0,0.0,0.0,0.0,0.0,0.0,0.0,0.0,0.0,0.0,0.0,-1.0,0.0,0.0,0.0,0.0,0.0,0.0,0.0,0.0
1615407366.422,0,1615407366,421999931,,0.0013651562746049167,-0.0020277863075765343,-0.7491123704849304,0.6624384354922992,-1.0,0.0,0.0,0.0,0.0,0.0,0.0,0.0,0.0,0.00012309608756440866,-2.2989525119120814e-05,0.0002134595662012618,-1.0,0.0,0.0,0.0,0.0,0.0,0.0,0.0,0.0,0.0,0.0,0.0,-1.0,0.0,0.0,0.0,0.0,0.0,0.0,0.0,0.0
1615407366.442,0,1615407366,441999912,,0.001363265556775457,-0.0020246057939952112,-0.7491124494703516,0.6624383597942759,-1.0,0.0,0.0,0.0,0.0,0.0,0.0,0.0,0.0,-6.177772350279091e-05,-2.0125299854207668e-05,8.466461153334276e-05,-1.0,0.0,0.0,0.0,0.0,0.0,0.0,0.0,0.0,0.0,0.0,0.0,-1.0,0.0,0.0,0.0,0.0,0.0,0.0,0.0,0.0
1615407366.462,0,1615407366,461999893,,0.0013631737296651474,-0.002028177932220695,-0.7491123628402336,0.6624384470209895,-1.0,0.0,0.0,0.0,0.0,0.0,0.0,0.0,0.0,5.4432348353422636e-05,-8.562608078664895e-05,0.00021624436930815715,-1.0,0.0,0.0,0.0,0.0,0.0,0.0,0.0,0.0,0.0,0.0,0.0,-1.0,0.0,0.0,0.0,0.0,0.0,0.0,0.0,0.0
1615407366.482,0,1615407366,482000113,,0.0013610111577608474,-0.0020294097871332286,-0.7491121611955828,0.6624386757228383,-1.0,0.0,0.0,0.0,0.0,0.0,0.0,0.0,0.0,-3.1875554929074803e-06,-0.0001512404267451515,0.00023281489309010707,-1.0,0.0,0.0,0.0,0.0,0.0,0.0,0.0,0.0,0.0,0.0,0.0,-1.0,0.0,0.0,0.0,0.0,0.0,0.0,0.0,0.0
1615407366.502,0,1615407366,502000093,,0.0013523680756852945,-0.0020280294502583885,-0.7491120481620043,0.6624388254742197,-1.0,0.0,0.0,0.0,0.0,0.0,0.0,0.0,0.0,-0.00025711276331013915,-0.00030677287948215797,-0.00010632176231069887,-1.0,0.0,0.0,0.0,0.0,0.0,0.0,0.0,0.0,0.0,0.0,0.0,-1.0,0.0,0.0,0.0,0.0,0.0,0.0,0.0,0.0
1615407366.522,0,1615407366,522000074,,0.0013525468020684286,-0.002027190912949845,-0.7491120049816089,0.6624388765060403,-1.0,0.0,0.0,0.0,0.0,0.0,0.0,0.0,0.0,-0.0001862216112699193,-0.00020634258652015824,-9.130618923527988e-05,-1.0,0.0,0.0,0.0,0.0,0.0,0.0,0.0,0.0,0.0,0.0,0.0,-1.0,0.0,0.0,0.0,0.0,0.0,0.0,0.0,0.0
1615407366.542,0,1615407366,542000055,,0.001350114713722126,-0.0020328334483335937,-0.7491121680031536,0.6624386798248169,-1.0,0.0,0.0,0.0,0.0,0.0,0.0,0.0,0.0,-3.844487093027835e-05,-0.00032156976539994835,0.00025843569136351657,-1.0,0.0,0.0,0.0,0.0,0.0,0.0,0.0,0.0,0.0,0.0,0.0,-1.0,0.0,0.0,0.0,0.0,0.0,0.0,0.0,0.0
1615407366.562,0,1615407366,562000036,,0.001345612177280512,-0.002036135200372992,-0.7491120698154189,0.6624387898803732,-1.0,0.0,0.0,0.0,0.0,0.0,0.0,0.0,0.0,-3.2610656704428556e-05,-0.0003846487494194314,0.00034041342413652285,-1.0,0.0,0.0,0.0,0.0,0.0,0.0,0.0,0.0,0.0,0.0,0.0,-1.0,0.0,0.0,0.0,0.0,0.0,0.0,0.0,0.0
1615407366.582,0,1615407366,582000017,,0.001353038183742323,-0.0020387389837254436,-0.7491121642237901,0.6624386599851936,-1.0,0.0,0.0,0.0,0.0,0.0,0.0,0.0,0.0,-0.00025262963893001115,-0.0002574398634786833,0.000324455458445578,-1.0,0.0,0.0,0.0,0.0,0.0,0.0,0.0,0.0,0.0,0.0,0.0,-1.0,0.0,0.0,0.0,0.0,0.0,0.0,0.0,0.0
1615407366.602,0,1615407366,601999998,,0.001353488785114472,-0.0020334900618466556,-0.7491122445379051,0.662438584375683,-1.0,0.0,0.0,0.0,0.0,0.0,0.0,0.0,0.0,-0.00030824037392830454,-5.023060791320755e-05,0.00029259296553019176,-1.0,0.0,0.0,0.0,0.0,0.0,0.0,0.0,0.0,0.0,0.0,0.0,-1.0,0.0,0.0,0.0,0.0,0.0,0.0,0.0,0.0
1615407366.622,0,1615407366,621999979,,0.0013422350530305433,-0.002038591152013922,-0.7491124535140082,0.6624383552764741,-1.0,0.0,0.0,0.0,0.0,0.0,0.0,0.0,0.0,-0.0003322312922541281,-0.0004227622756608708,6.918150568225376e-05,-1.0,0.0,0.0,0.0,0.0,0.0,0.0,0.0,0.0,0.0,0.0,0.0,-1.0,0.0,0.0,0.0,0.0,0.0,0.0,0.0,0.0
1615407366.642,0,1615407366,641999960,,0.0013380030522852232,-0.0020374823960043233,-0.7491123078401009,0.662438531983003,-1.0,0.0,0.0,0.0,0.0,0.0,0.0,0.0,0.0,-0.0003604790680240844,-0.0003599334646529685,5.7741556897283566e-05,-1.0,0.0,0.0,0.0,0.0,0.0,0.0,0.0,0.0,0.0,0.0,0.0,-1.0,0.0,0.0,0.0,0.0,0.0,0.0,0.0,0.0
1615407366.662,0,1615407366,661999941,,0.001331700944484716,-0.0020340324101469796,-0.7491122677974067,0.6624386005662528,-1.0,0.0,0.0,0.0,0.0,0.0,0.0,0.0,0.0,-0.00046776994959323254,-0.0003085916877860603,0.0004800745546129152,-1.0,0.0,0.0,0.0,0.0,0.0,0.0,0.0,0.0,0.0,0.0,0.0,-1.0,0.0,0.0,0.0,0.0,0.0,0.0,0.0,0.0
1615407366.682,0,1615407366,681999922,,0.0013365616434714027,-0.0020290544776927905,-0.7491120949489575,0.6624388015070403,-1.0,0.0,0.0,0.0,0.0,0.0,0.0,0.0,0.0,-0.0003244085673872912,4.2457509719528416e-05,0.000134554233132977,-1.0,0.0,0.0,0.0,0.0,0.0,0.0,0.0,0.0,0.0,0.0,0.0,-1.0,0.0,0.0,0.0,0.0,0.0,0.0,0.0,0.0
1615407366.702,0,1615407366,701999903,,0.001340881055121278,-0.0020328987856307362,-0.7491120197927906,0.6624388659812233,-1.0,0.0,0.0,0.0,0.0,0.0,0.0,0.0,0.0,-2.671631439478496e-05,3.403256425933014e-05,0.0002929481113895152,-1.0,0.0,0.0,0.0,0.0,0.0,0.0,0.0,0.0,0.0,0.0,0.0,-1.0,0.0,0.0,0.0,0.0,0.0,0.0,0.0,0.0
1615407366.722,0,1615407366,721999884,,0.0013498841470404239,-0.0020326025022061457,-0.7491123802657081,0.662438440968293,-1.0,0.0,0.0,0.0,0.0,0.0,0.0,0.0,0.0,0.0002024965652784846,0.00024462427568842053,3.434289383607924e-05,-1.0,0.0,0.0,0.0,0.0,0.0,0.0,0.0,0.0,0.0,0.0,0.0,-1.0,0.0,0.0,0.0,0.0,0.0,0.0,0.0,0.0
1615407366.742,0,1615407366,742000103,,0.001349794488788142,-0.002036175398056269,-0.7491127183313606,0.6624380478797894,-1.0,0.0,0.0,0.0,0.0,0.0,0.0,0.0,0.0,0.00018276018713404753,6.543936532906237e-05,-0.0001454562633047202,-1.0,0.0,0.0,0.0,0.0,0.0,0.0,0.0,0.0,0.0,0.0,0.0,-1.0,0.0,0.0,0.0,0.0,0.0,0.0,0.0,0.0
1615407366.762,0,1615407366,762000084,,0.0013432231187186332,-0.0020371361753399727,-0.7491128581517146,0.6624379001684805,-1.0,0.0,0.0,0.0,0.0,0.0,0.0,0.0,0.0,1.1297746545244474e-05,-0.0001984793522835672,-0.0002081959009787121,-1.0,0.0,0.0,0.0,0.0,0.0,0.0,0.0,0.0,0.0,0.0,0.0,-1.0,0.0,0.0,0.0,0.0,0.0,0.0,0.0,0.0
1615407366.782,0,1615407366,782000065,,0.001345472772839168,-0.002038639449341358,-0.7491126734565313,0.6624380998395408,-1.0,0.0,0.0,0.0,0.0,0.0,0.0,0.0,0.0,9.11741351004976e-05,-9.014721268321821e-05,-2.3126932474355945e-05,-1.0,0.0,0.0,0.0,0.0,0.0,0.0,0.0,0.0,0.0,0.0,0.0,-1.0,0.0,0.0,0.0,0.0,0.0,0.0,0.0,0.0
1615407366.802,0,1615407366,802000046,,0.0013461941428644442,-0.0020289792001636172,-0.7491125849385931,0.6624382281325212,-1.0,0.0,0.0,0.0,0.0,0.0,0.0,0.0,0.0,-0.00017380085077938197,0.0001946784657942682,5.430376255768293e-05,-1.0,0.0,0.0,0.0,0.0,0.0,0.0,0.0,0.0,0.0,0.0,0.0,-1.0,0.0,0.0,0.0,0.0,0.0,0.0,0.0,0.0
1615407366.822,0,1615407366,822000027,,0.0013481723302140646,-0.0020348928807157967,-0.7491126628947528,0.6624381178140828,-1.0,0.0,0.0,0.0,0.0,0.0,0.0,0.0,0.0,8.456730639173253e-05,4.514528468816933e-05,0.00010512632584021733,-1.0,0.0,0.0,0.0,0.0,0.0,0.0,0.0,0.0,0.0,0.0,0.0,-1.0,0.0,0.0,0.0,0.0,0.0,0.0,0.0,0.0
1615407366.842,0,1615407366,842000008,,0.001359430834816714,-0.0020419330467509114,-0.7491127974035732,0.6624379210336854,-1.0,0.0,0.0,0.0,0.0,0.0,0.0,0.0,0.0,3.796686296898627e-05,5.9554903246100316e-05,4.735511231819166e-05,-1.0,0.0,0.0,0.0,0.0,0.0,0.0,0.0,0.0,0.0,0.0,0.0,-1.0,0.0,0.0,0.0,0.0,0.0,0.0,0.0,0.0
1615407366.862,0,1615407366,861999989,,0.0013598820417518999,-0.002036683506960436,-0.7491128556138741,0.6624378704415622,-1.0,0.0,0.0,0.0,0.0,0.0,0.0,0.0,0.0,-9.38308072401123e-05,0.0001601575612099267,2.1916161868057503e-05,-1.0,0.0,0.0,0.0,0.0,0.0,0.0,0.0,0.0,0.0,0.0,0.0,-1.0,0.0,0.0,0.0,0.0,0.0,0.0,0.0,0.0
1615407366.882,0,1615407366,881999969,,0.0013553804497228995,-0.0020399852851988123,-0.7491127878023879,0.662437946191798,-1.0,0.0,0.0,0.0,0.0,0.0,0.0,0.0,0.0,-7.905247735621718e-05,-0.00012381707517247921,0.00031896855510280464,-1.0,0.0,0.0,0.0,0.0,0.0,0.0,0.0,0.0,0.0,0.0,0.0,-1.0,0.0,0.0,0.0,0.0,0.0,0.0,0.0,0.0
1615407366.902,0,1615407366,901999950,,0.0013511505095283114,-0.002038875634947875,-0.7491127524619177,0.6624379982137011,-1.0,0.0,0.0,0.0,0.0,0.0,0.0,0.0,0.0,-0.00017297091969940462,-0.00015598480196552273,0.00018762198141154905,-1.0,0.0,0.0,0.0,0.0,0.0,0.0,0.0,0.0,0.0,0.0,0.0,-1.0,0.0,0.0,0.0,0.0,0.0,0.0,0.0,0.0
1615407366.922,0,1615407366,921999931,,0.001353672962842413,-0.002035967507416243,-0.7491127850370397,0.6624379651709799,-1.0,0.0,0.0,0.0,0.0,0.0,0.0,0.0,0.0,-0.0001309407423374951,1.7637269781183904e-05,-9.331180702539127e-07,-1.0,0.0,0.0,0.0,0.0,0.0,0.0,0.0,0.0,0.0,0.0,0.0,-1.0,0.0,0.0,0.0,0.0,0.0,0.0,0.0,0.0
1615407366.942,0,1615407366,941999912,,0.001356467021759933,-0.0020286487539959547,-0.749112803134996,0.662437961442942,-1.0,0.0,0.0,0.0,0.0,0.0,0.0,0.0,0.0,-0.0002497096524094916,0.00024406153139724647,9.14944554287356e-05,-1.0,0.0,0.0,0.0,0.0,0.0,0.0,0.0,0.0,0.0,0.0,0.0,-1.0,0.0,0.0,0.0,0.0,0.0,0.0,0.0,0.0
1615407366.962,0,1615407366,961999893,,0.001361331169230898,-0.002023671442151857,-0.7491127486871915,0.6624380282605029,-1.0,0.0,0.0,0.0,0.0,0.0,0.0,0.0,0.0,-0.00017112218535693906,0.0004377397506640829,0.0002758748030974648,-1.0,0.0,0.0,0.0,0.0,0.0,0.0,0.0,0.0,0.0,0.0,0.0,-1.0,0.0,0.0,0.0,0.0,0.0,0.0,0.0,0.0
1615407366.982,0,1615407366,982000113,,0.001368264734611331,-0.0020210353573229204,-0.7491123872439225,0.6624384307582193,-1.0,0.0,0.0,0.0,0.0,0.0,0.0,0.0,0.0,-2.6067629463510266e-05,0.0005095788048954169,0.00016948369403335135,-1.0,0.0,0.0,0.0,0.0,0.0,0.0,0.0,0.0,0.0,0.0,0.0,-1.0,0.0,0.0,0.0,0.0,0.0,0.0,0.0,0.0
1615407367.002,0,1615407367,2000093,,0.0013749283236448551,-0.0020228091430561173,-0.7491122333370465,0.6624385855911914,-1.0,0.0,0.0,0.0,0.0,0.0,0.0,0.0,0.0,0.0001917121584468671,0.00047685968333372017,0.00012345059399016683,-1.0,0.0,0.0,0.0,0.0,0.0,0.0,0.0,0.0,0.0,0.0,0.0,-1.0,0.0,0.0,0.0,0.0,0.0,0.0,0.0,0.0
1615407367.022,0,1615407367,22000074,,0.0013795230025723886,-0.0020222410448128576,-0.749112413919541,0.6624383735632171,-1.0,0.0,0.0,0.0,0.0,0.0,0.0,0.0,0.0,0.00020959666162701974,0.00046552817414031555,0.0002618825721259325,-1.0,0.0,0.0,0.0,0.0,0.0,0.0,0.0,0.0,0.0,0.0,0.0,-1.0,0.0,0.0,0.0,0.0,0.0,0.0,0.0,0.0
1615407367.042,0,1615407367,42000055,,0.0013799776042575887,-0.0020169912526951344,-0.7491124830203253,0.6624383104797166,-1.0,0.0,0.0,0.0,0.0,0.0,0.0,0.0,0.0,7.596266910413061e-06,0.0004367339400370256,2.517218904457113e-05,-1.0,0.0,0.0,0.0,0.0,0.0,0.0,0.0,0.0,0.0,0.0,0.0,-1.0,0.0,0.0,0.0,0.0,0.0,0.0,0.0,0.0
1615407367.062,0,1615407367,62000036,,0.0013736803956182315,-0.002013540279182271,-0.7491125091138477,0.6624383045589002,-1.0,0.0,0.0,0.0,0.0,0.0,0.0,0.0,0.0,-0.00022856679759370225,0.0002254918985446289,0.00033358184091424324,-1.0,0.0,0.0,0.0,0.0,0.0,0.0,0.0,0.0,0.0,0.0,0.0,-1.0,0.0,0.0,0.0,0.0,0.0,0.0,0.0,0.0
1615407367.082,0,1615407367,82000017,,0.0013668414763897446,-0.0020189111280924125,-0.7491126497713525,0.6624381432970013,-1.0,0.0,0.0,0.0,0.0,0.0,0.0,0.0,0.0,-0.00017864947833172565,-0.0001506109517466828,0.00022091482872255773,-1.0,0.0,0.0,0.0,0.0,0.0,0.0,0.0,0.0,0.0,0.0,0.0,-1.0,0.0,0.0,0.0,0.0,0.0,0.0,0.0,0.0
1615407367.102,0,1615407367,101999998,,0.0013733198466148568,-0.0020295755442865174,-0.7491126007391624,0.662438152758065,-1.0,0.0,0.0,0.0,0.0,0.0,0.0,0.0,0.0,-0.00013462229824550516,-0.0002747409535947979,-7.927662271627556e-05,-1.0,0.0,0.0,0.0,0.0,0.0,0.0,0.0,0.0,0.0,0.0,0.0,-1.0,0.0,0.0,0.0,0.0,0.0,0.0,0.0,0.0
1615407367.122,0,1615407367,121999979,,0.0013784576857501173,-0.0020201853303672525,-0.749112782697431,0.6624379650238588,-1.0,0.0,0.0,0.0,0.0,0.0,0.0,0.0,0.0,-0.00019447423698048575,0.00022243647376648664,4.1128494529191025e-05,-1.0,0.0,0.0,0.0,0.0,0.0,0.0,0.0,0.0,0.0,0.0,0.0,-1.0,0.0,0.0,0.0,0.0,0.0,0.0,0.0,0.0
1615407367.142,0,1615407367,141999960,,0.0013835955886708478,-0.002010795274394518,-0.7491129727464642,0.6624377679665968,-1.0,0.0,0.0,0.0,0.0,0.0,0.0,0.0,0.0,-0.00025748715864093116,0.0004232575016946669,7.636638924979079e-06,-1.0,0.0,0.0,0.0,0.0,0.0,0.0,0.0,0.0,0.0,0.0,0.0,-1.0,0.0,0.0,0.0,0.0,0.0,0.0,0.0,0.0
1615407367.162,0,1615407367,161999941,,0.0013793688709882398,-0.002009686658941198,-0.7491129373764337,0.6624378201433716,-1.0,0.0,0.0,0.0,0.0,0.0,0.0,0.0,0.0,-0.00028756710844670086,0.00021663535319120048,-9.769252347216915e-05,-1.0,0.0,0.0,0.0,0.0,0.0,0.0,0.0,0.0,0.0,0.0,0.0,-1.0,0.0,0.0,0.0,0.0,0.0,0.0,0.0,0.0
1615407367.182,0,1615407367,181999922,,0.0013816232382420674,-0.0020111899876761896,-0.7491127279080796,0.6624380477585633,-1.0,0.0,0.0,0.0,0.0,0.0,0.0,0.0,0.0,-8.105205232601572e-05,0.00016095874519033712,-4.803532750327521e-06,-1.0,0.0,0.0,0.0,0.0,0.0,0.0,0.0,0.0,0.0,0.0,0.0,-1.0,0.0,0.0,0.0,0.0,0.0,0.0,0.0,0.0
1615407367.202,0,1615407367,201999903,,0.0013838781207749634,-0.0020126932742666878,-0.7491126287388571,0.6624381506307512,-1.0,0.0,0.0,0.0,0.0,0.0,0.0,0.0,0.0,4.195227776692077e-05,0.0001909271881790836,-0.00010350799245375589,-1.0,0.0,0.0,0.0,0.0,0.0,0.0,0.0,0.0,0.0,0.0,0.0,-1.0,0.0,0.0,0.0,0.0,0.0,0.0,0.0,0.0
1615407367.222,0,1615407367,221999884,,0.001384063867559244,-0.002011855741822243,-0.7491127868707774,0.6624379739646435,-1.0,0.0,0.0,0.0,0.0,0.0,0.0,0.0,0.0,3.3926882267307606e-05,0.00014170771985693679,-7.712056689973261e-05,-1.0,0.0,0.0,0.0,0.0,0.0,0.0,0.0,0.0,0.0,0.0,0.0,-1.0,0.0,0.0,0.0,0.0,0.0,0.0,0.0,0.0
1615407367.242,0,1615407367,242000103,,0.00138452093003423,-0.0020066062674980955,-0.7491129469425101,0.662437807915724,-1.0,0.0,0.0,0.0,0.0,0.0,0.0,0.0,0.0,-0.00012009811816073601,0.00021419322723891383,-7.353350466531003e-05,-1.0,0.0,0.0,0.0,0.0,0.0,0.0,0.0,0.0,0.0,0.0,0.0,-1.0,0.0,0.0,0.0,0.0,0.0,0.0,0.0,0.0
1615407367.262,0,1615407367,262000084,,0.0013735424860895308,-0.002007297391251113,-0.7491128685496944,0.6624379173261976,-1.0,0.0,0.0,0.0,0.0,0.0,0.0,0.0,0.0,-0.0003461551018399965,-0.00014677544018441995,-0.0005336573664361474,-1.0,0.0,0.0,0.0,0.0,0.0,0.0,0.0,0.0,0.0,0.0,0.0,-1.0,0.0,0.0,0.0,0.0,0.0,0.0,0.0,0.0
1615407367.282,0,1615407367,282000065,,0.0013734569027918798,-0.002010870599012844,-0.7491128481826523,0.6624379296985075,-1.0,0.0,0.0,0.0,0.0,0.0,0.0,0.0,0.0,-0.00011947777255506497,-0.0002149659043177369,-0.0002931322867667232,-1.0,0.0,0.0,0.0,0.0,0.0,0.0,0.0,0.0,0.0,0.0,0.0,-1.0,0.0,0.0,0.0,0.0,0.0,0.0,0.0,0.0
1615407367.302,0,1615407367,302000046,,0.0013710304263083322,-0.0020165139429318907,-0.7491128431340517,0.6624379232793861,-1.0,0.0,0.0,0.0,0.0,0.0,0.0,0.0,0.0,5.497596691012645e-06,-0.0003484540714994934,-0.00010141805425497532,-1.0,0.0,0.0,0.0,0.0,0.0,0.0,0.0,0.0,0.0,0.0,0.0,-1.0,0.0,0.0,0.0,0.0,0.0,0.0,0.0,0.0
1615407367.322,0,1615407367,322000027,,0.0013732859756602918,-0.0020180168973801147,-0.7491127605178255,0.6624380074563915,-1.0,0.0,0.0,0.0,0.0,0.0,0.0,0.0,0.0,8.749217967757807e-05,-0.00020090010205417214,0.00033160182410357694,-1.0,0.0,0.0,0.0,0.0,0.0,0.0,0.0,0.0,0.0,0.0,0.0,-1.0,0.0,0.0,0.0,0.0,0.0,0.0,0.0,0.0
1615407367.342,0,1615407367,342000008,,0.0013714015401801321,-0.0020148376847758664,-0.7491129939171022,0.6624377570998464,-1.0,0.0,0.0,0.0,0.0,0.0,0.0,0.0,0.0,-6.121315548940409e-05,-9.161696593722823e-05,-1.7796412520991383e-05,-1.0,0.0,0.0,0.0,0.0,0.0,0.0,0.0,0.0,0.0,0.0,0.0,-1.0,0.0,0.0,0.0,0.0,0.0,0.0,0.0,0.0
1615407367.362,0,1615407367,361999989,,0.0013819879881422782,-0.002016884727932965,-0.7491128553625963,0.6624378855528215,-1.0,0.0,0.0,0.0,0.0,0.0,0.0,0.0,0.0,-0.0001825127586772834,7.123500906506104e-05,9.167678476316859e-05,-1.0,0.0,0.0,0.0,0.0,0.0,0.0,0.0,0.0,0.0,0.0,0.0,-1.0,0.0,0.0,0.0,0.0,0.0,0.0,0.0,0.0
1615407367.382,0,1615407367,381999969,,0.0013821746275469381,-0.002016046609618497,-0.7491128728171556,0.6624378679763069,-1.0,0.0,0.0,0.0,0.0,0.0,0.0,0.0,0.0,-0.00013946150760470023,6.435613322248256e-05,3.849503251547984e-05,-1.0,0.0,0.0,0.0,0.0,0.0,0.0,0.0,0.0,0.0,0.0,0.0,-1.0,0.0,0.0,0.0,0.0,0.0,0.0,0.0,0.0
1615407367.402,0,1615407367,401999950,,0.001382631979561777,-0.002010797540051997,-0.7491127791583587,0.6624379888893014,-1.0,0.0,0.0,0.0,0.0,0.0,0.0,0.0,0.0,-0.00023383747400756354,0.0001735979957451363,0.0002523340878512267,-1.0,0.0,0.0,0.0,0.0,0.0,0.0,0.0,0.0,0.0,0.0,0.0,-1.0,0.0,0.0,0.0,0.0,0.0,0.0,0.0,0.0
1615407367.422,0,1615407367,421999931,,0.0013760662358552826,-0.002011759758160296,-0.749112546738554,0.6624382624692415,-1.0,0.0,0.0,0.0,0.0,0.0,0.0,0.0,0.0,-0.0002618595015893018,-7.085803744352192e-05,0.00026888755599860294,-1.0,0.0,0.0,0.0,0.0,0.0,0.0,0.0,0.0,0.0,0.0,0.0,-1.0,0.0,0.0,0.0,0.0,0.0,0.0,0.0,0.0
1615407367.442,0,1615407367,441999912,,0.0013765238209821516,-0.0020065117606276267,-0.749112544115777,0.6624382804013614,-1.0,0.0,0.0,0.0,0.0,0.0,0.0,0.0,0.0,-0.00029148639693865673,0.00011872869392622526,0.0001333696084253153,-1.0,0.0,0.0,0.0,0.0,0.0,0.0,0.0,0.0,0.0,0.0,0.0,-1.0,0.0,0.0,0.0,0.0,0.0,0.0,0.0,0.0
1615407367.462,0,1615407367,461999893,,0.0013746407042950224,-0.002003334455566618,-0.7491124409576331,0.6624384105835728,-1.0,0.0,0.0,0.0,0.0,0.0,0.0,0.0,0.0,-0.0003447774851815635,5.275208743030597e-05,-7.040760870744028e-05,-1.0,0.0,0.0,0.0,0.0,0.0,0.0,0.0,0.0,0.0,0.0,0.0,-1.0,0.0,0.0,0.0,0.0,0.0,0.0,0.0,0.0
1615407367.482,0,1615407367,482000113,,0.0013701460973633433,-0.0020066376706134115,-0.7491124256147621,0.6624384272477694,-1.0,0.0,0.0,0.0,0.0,0.0,0.0,0.0,0.0,-0.00024350344010477706,-0.0001513961869220797,-0.0003053448354150898,-1.0,0.0,0.0,0.0,0.0,0.0,0.0,0.0,0.0,0.0,0.0,0.0,-1.0,0.0,0.0,0.0,0.0,0.0,0.0,0.0,0.0
1615407367.502,0,1615407367,502000093,,0.0013750159290842699,-0.002001660099247735,-0.749112528227266,0.6624383161781898,-1.0,0.0,0.0,0.0,0.0,0.0,0.0,0.0,0.0,-0.00021093085019595272,0.0001207878378463676,-0.00022074833094458868,-1.0,0.0,0.0,0.0,0.0,0.0,0.0,0.0,0.0,0.0,0.0,0.0,-1.0,0.0,0.0,0.0,0.0,0.0,0.0,0.0,0.0
1615407367.522,0,1615407367,522000074,,0.0013728625397729907,-0.0020028937119441017,-0.7491125665168336,0.6624382736163333,-1.0,0.0,0.0,0.0,0.0,0.0,0.0,0.0,0.0,-0.0001770428591657234,-2.689708309366148e-05,-0.00016648999243032704,-1.0,0.0,0.0,0.0,0.0,0.0,0.0,0.0,0.0,0.0,0.0,0.0,-1.0,0.0,0.0,0.0,0.0,0.0,0.0,0.0,0.0
1615407367.542,0,1615407367,542000055,,0.0013771905782450024,-0.0020067388531933637,-0.7491126845112759,0.6624381195625717,-1.0,0.0,0.0,0.0,0.0,0.0,0.0,0.0,0.0,8.268327937224792e-05,4.6331784037316394e-05,-0.00038090692016006097,-1.0,0.0,0.0,0.0,0.0,0.0,0.0,0.0,0.0,0.0,0.0,0.0,-1.0,0.0,0.0,0.0,0.0,0.0,0.0,0.0,0.0
1615407367.562,0,1615407367,562000036,,0.0013797180494712104,-0.0020038322503558247,-0.74911261491116,0.6624382018085767,-1.0,0.0,0.0,0.0,0.0,0.0,0.0,0.0,0.0,4.944680431400356e-05,0.00014035961011779713,-0.0005788377223028448,-1.0,0.0,0.0,0.0,0.0,0.0,0.0,0.0,0.0,0.0,0.0,0.0,-1.0,0.0,0.0,0.0,0.0,0.0,0.0,0.0,0.0
1615407367.582,0,1615407367,582000017,,0.0013843148532997928,-0.0020032669127670456,-0.7491123762931202,0.6624384637674188,-1.0,0.0,0.0,0.0,0.0,0.0,0.0,0.0,0.0,0.00010625906222603223,0.00021217036603884498,-0.0003340876953709351,-1.0,0.0,0.0,0.0,0.0,0.0,0.0,0.0,0.0,0.0,0.0,0.0,-1.0,0.0,0.0,0.0,0.0,0.0,0.0,0.0,0.0
1615407367.602,0,1615407367,601999998,,0.0013883711154468082,-0.0020115234691046673,-0.7491123737282339,0.6624384331590595,-1.0,0.0,0.0,0.0,0.0,0.0,0.0,0.0,0.0,0.0003697908401623567,4.554654962987111e-05,-0.00014978112144247644,-1.0,0.0,0.0,0.0,0.0,0.0,0.0,0.0,0.0,0.0,0.0,0.0,-1.0,0.0,0.0,0.0,0.0,0.0,0.0,0.0,0.0
1615407367.622,0,1615407367,621999979,,0.0013977718457096372,-0.002018424050091288,-0.7491124660324383,0.6624382880186052,-1.0,0.0,0.0,0.0,0.0,0.0,0.0,0.0,0.0,0.0001802233238052407,3.622494487341692e-05,9.614224196759649e-05,-1.0,0.0,0.0,0.0,0.0,0.0,0.0,0.0,0.0,0.0,0.0,0.0,-1.0,0.0,0.0,0.0,0.0,0.0,0.0,0.0,0.0
1615407367.642,0,1615407367,641999960,,0.0013964300608462227,-0.002006426085947574,-0.7491122315936942,0.6624385924100151,-1.0,0.0,0.0,0.0,0.0,0.0,0.0,0.0,0.0,-0.00021512013250471576,0.0002800831548968548,2.8873601594543122e-05,-1.0,0.0,0.0,0.0,0.0,0.0,0.0,0.0,0.0,0.0,0.0,0.0,-1.0,0.0,0.0,0.0,0.0,0.0,0.0,0.0,0.0
1615407367.662,0,1615407367,661999941,,0.0013919352857530585,-0.002009731040330429,-0.7491123018740985,0.662438512375447,-1.0,0.0,0.0,0.0,0.0,0.0,0.0,0.0,0.0,-0.0001583958973502525,1.0205031428175724e-05,-2.412977193513946e-05,-1.0,0.0,0.0,0.0,0.0,0.0,0.0,0.0,0.0,0.0,0.0,0.0,-1.0,0.0,0.0,0.0,0.0,0.0,0.0,0.0,0.0
1615407367.682,0,1615407367,681999922,,0.0013874404997026503,-0.0020130364503145857,-0.7491123114512408,0.6624385009382296,-1.0,0.0,0.0,0.0,0.0,0.0,0.0,0.0,0.0,-0.00012116555604224184,-0.00019186423773033258,-0.00012868647644652121,-1.0,0.0,0.0,0.0,0.0,0.0,0.0,0.0,0.0,0.0,0.0,0.0,-1.0,0.0,0.0,0.0,0.0,0.0,0.0,0.0,0.0
1615407367.702,0,1615407367,701999903,,0.0013876282448934592,-0.0020122010422983956,-0.7491125054142979,0.6624382837417634,-1.0,0.0,0.0,0.0,0.0,0.0,0.0,0.0,0.0,-7.29951239546397e-05,-9.581956446981843e-05,-0.00012993945620106087,-1.0,0.0,0.0,0.0,0.0,0.0,0.0,0.0,0.0,0.0,0.0,0.0,-1.0,0.0,0.0,0.0,0.0,0.0,0.0,0.0,0.0
1615407367.722,0,1615407367,721999884,,0.001389885624907546,-0.002013706753525619,-0.7491125110558131,0.6624382680542502,-1.0,0.0,0.0,0.0,0.0,0.0,0.0,0.0,0.0,3.610316356724353e-05,-6.779760881726319e-05,9.546483650382966e-05,-1.0,0.0,0.0,0.0,0.0,0.0,0.0,0.0,0.0,0.0,0.0,0.0,-1.0,0.0,0.0,0.0,0.0,0.0,0.0,0.0,0.0
1615407367.742,0,1615407367,742000103,,0.001389802513966422,-0.0020172824563291954,-0.7491126672084153,0.6624380807655593,-1.0,0.0,0.0,0.0,0.0,0.0,0.0,0.0,0.0,0.0001100621079292298,-0.00013941192150180117,0.00027835417409422577,-1.0,0.0,0.0,0.0,0.0,0.0,0.0,0.0,0.0,0.0,0.0,0.0,-1.0,0.0,0.0,0.0,0.0,0.0,0.0,0.0,0.0
1615407367.762,0,1615407367,762000084,,0.0013902600934782205,-0.002012036406105624,-0.7491125624768433,0.6624382141949169,-1.0,0.0,0.0,0.0,0.0,0.0,0.0,0.0,0.0,-5.753835530487656e-05,4.996649418841213e-05,0.00016086348100163085,-1.0,0.0,0.0,0.0,0.0,0.0,0.0,0.0,0.0,0.0,0.0,0.0,-1.0,0.0,0.0,0.0,0.0,0.0,0.0,0.0,0.0
1615407367.782,0,1615407367,782000065,,0.0013881066768210199,-0.0020132716157151144,-0.7491127552445785,0.6624379969681172,-1.0,0.0,0.0,0.0,0.0,0.0,0.0,0.0,0.0,-5.498809713858106e-05,-5.204251495067538e-05,7.250846075748394e-05,-1.0,0.0,0.0,0.0,0.0,0.0,0.0,0.0,0.0,0.0,0.0,0.0,-1.0,0.0,0.0,0.0,0.0,0.0,0.0,0.0,0.0
1615407367.802,0,1615407367,802000046,,0.0013903639392619232,-0.0020147787432662355,-0.7491128463592128,0.6624378846158564,-1.0,0.0,0.0,0.0,0.0,0.0,0.0,0.0,0.0,3.782592315011282e-05,-4.1225973098876935e-06,0.00018230582528334612,-1.0,0.0,0.0,0.0,0.0,0.0,0.0,0.0,0.0,0.0,0.0,0.0,-1.0,0.0,0.0,0.0,0.0,0.0,0.0,0.0,0.0
1615407367.822,0,1615407367,822000027,,0.001384069419387714,-0.002011333884907424,-0.7491128779407485,0.6624378725519663,-1.0,0.0,0.0,0.0,0.0,0.0,0.0,0.0,0.0,-0.00018475951222533175,-8.757322156405533e-05,-3.964734843951931e-05,-1.0,0.0,0.0,0.0,0.0,0.0,0.0,0.0,0.0,0.0,0.0,0.0,-1.0,0.0,0.0,0.0,0.0,0.0,0.0,0.0,0.0
1615407367.842,0,1615407367,842000008,,0.0013842550228445184,-0.002010501018817691,-0.7491127188482886,0.6624380546008887,-1.0,0.0,0.0,0.0,0.0,0.0,0.0,0.0,0.0,-0.0001259463487414342,-5.1214306255266353e-05,-2.644173964422888e-06,-1.0,0.0,0.0,0.0,0.0,0.0,0.0,0.0,0.0,0.0,0.0,0.0,-1.0,0.0,0.0,0.0,0.0,0.0,0.0,0.0,0.0
1615407367.862,0,1615407367,861999989,,0.0013776879811799327,-0.00201146781854552,-0.7491124891691056,0.662438325086878,-1.0,0.0,0.0,0.0,0.0,0.0,0.0,0.0,0.0,-0.0002034807353825382,-0.00021974047870053652,0.00017903186176406897,-1.0,0.0,0.0,0.0,0.0,0.0,0.0,0.0,0.0,0.0,0.0,0.0,-1.0,0.0,0.0,0.0,0.0,0.0,0.0,0.0,0.0
1615407367.882,0,1615407367,881999969,,0.0013822722300336375,-0.0020184543304269326,-0.7491124919755505,0.6624382911122959,-1.0,0.0,0.0,0.0,0.0,0.0,0.0,0.0,0.0,-0.00024184317684055245,-0.00023921499505798131,-7.871354729528662e-06,-1.0,0.0,0.0,0.0,0.0,0.0,0.0,0.0,0.0,0.0,0.0,0.0,-1.0,0.0,0.0,0.0,0.0,0.0,0.0,0.0,0.0
1615407367.902,0,1615407367,901999950,,0.0013845284238999272,-0.0020199629910703874,-0.7491126382492184,0.6624381163896397,-1.0,0.0,0.0,0.0,0.0,0.0,0.0,0.0,0.0,-5.088198629342713e-05,-0.0001608691345459381,0.00021064567492842817,-1.0,0.0,0.0,0.0,0.0,0.0,0.0,0.0,0.0,0.0,0.0,0.0,-1.0,0.0,0.0,0.0,0.0,0.0,0.0,0.0,0.0
1615407367.922,0,1615407367,921999931,,0.0013818318616688704,-0.0020300228608819506,-0.7491129566097555,0.6624377312527426,-1.0,0.0,0.0,0.0,0.0,0.0,0.0,0.0,0.0,0.0001756502114768418,-0.00038284943456637924,-0.0004270626986816145,-1.0,0.0,0.0,0.0,0.0,0.0,0.0,0.0,0.0,0.0,0.0,0.0,-1.0,0.0,0.0,0.0,0.0,0.0,0.0,0.0,0.0
1615407367.942,0,1615407367,941999912,,0.001379947397271085,-0.002026849782808993,-0.7491130107444712,0.6624376836793725,-1.0,0.0,0.0,0.0,0.0,0.0,0.0,0.0,0.0,-3.2106328539916823e-06,-0.0001998622263902263,-0.0005281064128858095,-1.0,0.0,0.0,0.0,0.0,0.0,0.0,0.0,0.0,0.0,0.0,0.0,-1.0,0.0,0.0,0.0,0.0,0.0,0.0,0.0,0.0
1615407367.962,0,1615407367,961999893,,0.0013733815386917656,-0.002027816540343385,-0.7491130955085681,0.6624375985108325,-1.0,0.0,0.0,0.0,0.0,0.0,0.0,0.0,0.0,-0.00012055798473639462,-0.0003511487508948458,-0.000481873048585317,-1.0,0.0,0.0,0.0,0.0,0.0,0.0,0.0,0.0,0.0,0.0,0.0,-1.0,0.0,0.0,0.0,0.0,0.0,0.0,0.0,0.0
1615407367.982,0,1615407367,982000113,,0.001366816187605046,-0.0020287835137999346,-0.7491130533676895,0.6624376567837162,-1.0,0.0,0.0,0.0,0.0,0.0,0.0,0.0,0.0,-0.00020877990237244898,-0.00042776043999496886,-0.00045028518669630753,-1.0,0.0,0.0,0.0,0.0,0.0,0.0,0.0,0.0,0.0,0.0,0.0,-1.0,0.0,0.0,0.0,0.0,0.0,0.0,0.0,0.0
1615407368.002,0,1615407368,2000093,,0.0013670038903745999,-0.002027951116362943,-0.7491132142139352,0.662437477053269,-1.0,0.0,0.0,0.0,0.0,0.0,0.0,0.0,0.0,-0.0001541489936461327,-0.000274406564961431,-0.00020455400192189433,-1.0,0.0,0.0,0.0,0.0,0.0,0.0,0.0,0.0,0.0,0.0,0.0,-1.0,0.0,0.0,0.0,0.0,0.0,0.0,0.0,0.0
1615407368.022,0,1615407368,22000074,,0.0013648507463449764,-0.002029188669784044,-0.7491133793288823,0.6624372909840182,-1.0,0.0,0.0,0.0,0.0,0.0,0.0,0.0,0.0,-0.00011830993450135906,-0.0002862801746912075,-0.0001659210031488877,-1.0,0.0,0.0,0.0,0.0,0.0,0.0,0.0,0.0,0.0,0.0,0.0,-1.0,0.0,0.0,0.0,0.0,0.0,0.0,0.0,0.0
1615407368.042,0,1615407368,42000055,,0.0013759303330785997,-0.002031238523647887,-0.749113393995053,0.6624372451960949,-1.0,0.0,0.0,0.0,0.0,0.0,0.0,0.0,0.0,0.0002439259395519143,4.467555241573985e-05,0.00010706041323834177,-1.0,0.0,0.0,0.0,0.0,0.0,0.0,0.0,0.0,0.0,0.0,0.0,-1.0,0.0,0.0,0.0,0.0,0.0,0.0,0.0,0.0
1615407368.062,0,1615407368,62000036,,0.0013672950280751218,-0.0020298645238947476,-0.7491134850906763,0.6624371642726742,-1.0,0.0,0.0,0.0,0.0,0.0,0.0,0.0,0.0,-3.938938094647076e-05,-0.00014432357278126151,0.00027493232544393745,-1.0,0.0,0.0,0.0,0.0,0.0,0.0,0.0,0.0,0.0,0.0,0.0,-1.0,0.0,0.0,0.0,0.0,0.0,0.0,0.0,0.0
1615407368.082,0,1615407368,82000017,,0.0013695510035090627,-0.0020313731539064925,-0.7491133224165232,0.6624373389470409,-1.0,0.0,0.0,0.0,0.0,0.0,0.0,0.0,0.0,5.819748225475322e-05,-5.345281698713986e-05,0.00035118828280128884,-1.0,0.0,0.0,0.0,0.0,0.0,0.0,0.0,0.0,0.0,0.0,0.0,-1.0,0.0,0.0,0.0,0.0,0.0,0.0,0.0,0.0
1615407368.102,0,1615407368,101999998,,0.0013741480750863076,-0.0020308113088314335,-0.7491132409629658,0.6624374232608369,-1.0,0.0,0.0,0.0,0.0,0.0,0.0,0.0,0.0,0.0001334653345922126,9.616453594686417e-05,8.38499914313905e-05,-1.0,0.0,0.0,0.0,0.0,0.0,0.0,0.0,0.0,0.0,0.0,0.0,-1.0,0.0,0.0,0.0,0.0,0.0,0.0,0.0,0.0
1615407368.122,0,1615407368,121999979,,0.0013769460458215223,-0.002023497435545269,-0.749113322323527,0.6624373478262854,-1.0,0.0,0.0,0.0,0.0,0.0,0.0,0.0,0.0,-4.214076322748028e-05,0.0002854332700693252,-0.00039644588598805163,-1.0,0.0,0.0,0.0,0.0,0.0,0.0,0.0,0.0,0.0,0.0,0.0,-1.0,0.0,0.0,0.0,0.0,0.0,0.0,0.0,0.0
1615407368.142,0,1615407368,141999960,,0.001385395720036291,-0.002030666196985144,-0.7491133697315887,0.662437254661058,-1.0,0.0,0.0,0.0,0.0,0.0,0.0,0.0,0.0,-3.2348028530850855e-05,0.00020711050305097917,-7.80701835709847e-05,-1.0,0.0,0.0,0.0,0.0,0.0,0.0,0.0,0.0,0.0,0.0,0.0,-1.0,0.0,0.0,0.0,0.0,0.0,0.0,0.0,0.0
1615407368.162,0,1615407368,161999941,,0.0013853106780570507,-0.0020342452276281902,-0.7491132748223098,0.6624373511855092,-1.0,0.0,0.0,0.0,0.0,0.0,0.0,0.0,0.0,6.282388970799752e-05,5.098498843405903e-05,-0.00019656943804133154,-1.0,0.0,0.0,0.0,0.0,0.0,0.0,0.0,0.0,0.0,0.0,0.0,-1.0,0.0,0.0,0.0,0.0,0.0,0.0,0.0,0.0
1615407368.182,0,1615407368,181999922,,0.0013878383913077724,-0.0020313435341801495,-0.7491132189827127,0.6624374179448231,-1.0,0.0,0.0,0.0,0.0,0.0,0.0,0.0,0.0,4.780153647782954e-05,0.00018842804137675465,-0.0003880838065072594,-1.0,0.0,0.0,0.0,0.0,0.0,0.0,0.0,0.0,0.0,0.0,0.0,-1.0,0.0,0.0,0.0,0.0,0.0,0.0,0.0,0.0
1615407368.202,0,1615407368,201999903,,0.0013885675620021515,-0.0020216893966473214,-0.7491132459242689,0.6624374154838442,-1.0,0.0,0.0,0.0,0.0,0.0,0.0,0.0,0.0,-0.00019954212498018542,0.0003561175949839974,-0.0002762535470650935,-1.0,0.0,0.0,0.0,0.0,0.0,0.0,0.0,0.0,0.0,0.0,0.0,-1.0,0.0,0.0,0.0,0.0,0.0,0.0,0.0,0.0
1615407368.222,0,1615407368,221999884,,0.0013910973423069638,-0.0020187869117967165,-0.7491135320618199,0.662437095450922,-1.0,0.0,0.0,0.0,0.0,0.0,0.0,0.0,0.0,-0.0001593148907708432,0.0003750282264128322,1.0888225625766552e-05,-1.0,0.0,0.0,0.0,0.0,0.0,0.0,0.0,0.0,0.0,0.0,0.0,-1.0,0.0,0.0,0.0,0.0,0.0,0.0,0.0,0.0
1615407368.242,0,1615407368,242000103,,0.001388674785828839,-0.002024436358979929,-0.7491136511667121,0.6624369486037484,-1.0,0.0,0.0,0.0,0.0,0.0,0.0,0.0,0.0,-4.302062285662315e-05,7.246559866570102e-05,-0.0003318215300889655,-1.0,0.0,0.0,0.0,0.0,0.0,0.0,0.0,0.0,0.0,0.0,0.0,-1.0,0.0,0.0,0.0,0.0,0.0,0.0,0.0,0.0
1615407368.262,0,1615407368,262000084,,0.0013800412699567792,-0.0020230633139133756,-0.7491137147527244,0.6624368989347552,-1.0,0.0,0.0,0.0,0.0,0.0,0.0,0.0,0.0,-0.0002715878520121813,-0.00012606234722920576,-0.00023929416331907685,-1.0,0.0,0.0,0.0,0.0,0.0,0.0,0.0,0.0,0.0,0.0,0.0,-1.0,0.0,0.0,0.0,0.0,0.0,0.0,0.0,0.0
1615407368.282,0,1615407368,282000065,,0.001373749018165642,-0.0020196204193194188,-0.7491138346223171,0.6624367869649487,-1.0,0.0,0.0,0.0,0.0,0.0,0.0,0.0,0.0,-0.0004327872250358869,-0.00018894985853105804,-4.3493152668057936e-05,-1.0,0.0,0.0,0.0,0.0,0.0,0.0,0.0,0.0,0.0,0.0,0.0,-1.0,0.0,0.0,0.0,0.0,0.0,0.0,0.0,0.0
1615407368.302,0,1615407368,302000046,,0.001378348712082154,-0.0020190608980653417,-0.7491137035366008,0.6624369273535372,-1.0,0.0,0.0,0.0,0.0,0.0,0.0,0.0,0.0,-0.00017604970326707663,-2.839415473007619e-06,-5.013900837202966e-05,-1.0,0.0,0.0,0.0,0.0,0.0,0.0,0.0,0.0,0.0,0.0,0.0,-1.0,0.0,0.0,0.0,0.0,0.0,0.0,0.0,0.0
1615407368.322,0,1615407368,322000027,,0.0013741267517445891,-0.002017959887386366,-0.7491137646586271,0.662436870360144,-1.0,0.0,0.0,0.0,0.0,0.0,0.0,0.0,0.0,-0.00024507918532574286,-0.00010811362156980996,7.052126270558852e-05,-1.0,0.0,0.0,0.0,0.0,0.0,0.0,0.0,0.0,0.0,0.0,0.0,-1.0,0.0,0.0,0.0,0.0,0.0,0.0,0.0,0.0
1615407368.342,0,1615407368,342000008,,0.0013743163981597792,-0.002017130980419189,-0.7491136386705983,0.6624370149642469,-1.0,0.0,0.0,0.0,0.0,0.0,0.0,0.0,0.0,-0.00017782681678633018,-6.467910318907012e-05,0.00011344641623973494,-1.0,0.0,0.0,0.0,0.0,0.0,0.0,0.0,0.0,0.0,0.0,0.0,-1.0,0.0,0.0,0.0,0.0,0.0,0.0,0.0,0.0
1615407368.362,0,1615407368,361999989,,0.0013724360303888458,-0.002013961111554141,-0.7491135603603045,0.6624371170641724,-1.0,0.0,0.0,0.0,0.0,0.0,0.0,0.0,0.0,-0.00022482434728782953,-1.4810716000904022e-05,0.0003814698508134945,-1.0,0.0,0.0,0.0,0.0,0.0,0.0,0.0,0.0,0.0,0.0,0.0,-1.0,0.0,0.0,0.0,0.0,0.0,0.0,0.0,0.0
1615407368.382,0,1615407368,381999969,,0.0013749668514850563,-0.002011061123788812,-0.7491135845340259,0.6624370932895415,-1.0,0.0,0.0,0.0,0.0,0.0,0.0,0.0,0.0,-0.00019843550453397792,0.0001452887693355736,0.0003400670500435687,-1.0,0.0,0.0,0.0,0.0,0.0,0.0,0.0,0.0,0.0,0.0,0.0,-1.0,0.0,0.0,0.0,0.0,0.0,0.0,0.0,0.0
1615407368.402,0,1615407368,401999950,,0.0013830413691439823,-0.0020181363094784847,-0.7491135245290603,0.6624371228200128,-1.0,0.0,0.0,0.0,0.0,0.0,0.0,0.0,0.0,-0.00013713104396165937,0.00011408237780974296,0.0002116717775956769,-1.0,0.0,0.0,0.0,0.0,0.0,0.0,0.0,0.0,0.0,0.0,0.0,-1.0,0.0,0.0,0.0,0.0,0.0,0.0,0.0,0.0
1615407368.422,0,1615407368,421999931,,0.001383231338426307,-0.0020173059311128162,-0.7491137184867254,0.6624369056165544,-1.0,0.0,0.0,0.0,0.0,0.0,0.0,0.0,0.0,-0.00010703847059703302,9.360378279872614e-05,0.00022089673734061467,-1.0,0.0,0.0,0.0,0.0,0.0,0.0,0.0,0.0,0.0,0.0,0.0,-1.0,0.0,0.0,0.0,0.0,0.0,0.0,0.0,0.0
1615407368.442,0,1615407368,441999912,,0.0013860322457569351,-0.002009994710562637,-0.749113708726398,0.6624369330238605,-1.0,0.0,0.0,0.0,0.0,0.0,0.0,0.0,0.0,-0.00019979943636574987,0.00028377982071835255,-9.280835413808539e-05,-1.0,0.0,0.0,0.0,0.0,0.0,0.0,0.0,0.0,0.0,0.0,0.0,-1.0,0.0,0.0,0.0,0.0,0.0,0.0,0.0,0.0
1615407368.462,0,1615407368,461999893,,0.0013815400148242526,-0.002013304845321537,-0.7491137513529382,0.6624368841517776,-1.0,0.0,0.0,0.0,0.0,0.0,0.0,0.0,0.0,-0.00013690198858902554,-1.1167297400246692e-05,-0.0003200125712988155,-1.0,0.0,0.0,0.0,0.0,0.0,0.0,0.0,0.0,0.0,0.0,0.0,-1.0,0.0,0.0,0.0,0.0,0.0,0.0,0.0,0.0
1615407368.482,0,1615407368,482000113,,0.0013744356266827441,-0.0020230958704955276,-0.7491137603959089,0.6624368588743441,-1.0,0.0,0.0,0.0,0.0,0.0,0.0,0.0,0.0,1.8097216703455134e-05,-0.0003970476374892047,0.00012076825426061025,-1.0,0.0,0.0,0.0,0.0,0.0,0.0,0.0,0.0,0.0,0.0,0.0,-1.0,0.0,0.0,0.0,0.0,0.0,0.0,0.0,0.0
1615407368.502,0,1615407368,502000093,,0.0013766951809491422,-0.0020246067887662294,-0.7491135812289449,0.6624370521763369,-1.0,0.0,0.0,0.0,0.0,0.0,0.0,0.0,0.0,9.605581248918234e-05,-0.0002542216182269565,0.0001588444821364454,-1.0,0.0,0.0,0.0,0.0,0.0,0.0,0.0,0.0,0.0,0.0,0.0,-1.0,0.0,0.0,0.0,0.0,0.0,0.0,0.0,0.0
1615407368.522,0,1615407368,522000074,,0.0013631103669116875,-0.00203178666547022,-0.7491134472309592,0.6624372098175212,-1.0,0.0,0.0,0.0,0.0,0.0,0.0,0.0,0.0,-0.00010038739130280313,-0.0006791130418215335,-4.239063536720753e-05,-1.0,0.0,0.0,0.0,0.0,0.0,0.0,0.0,0.0,0.0,0.0,0.0,-1.0,0.0,0.0,0.0,0.0,0.0,0.0,0.0,0.0
1615407368.542,0,1615407368,542000055,,0.0013586195825171002,-0.00203509627576334,-0.7491135173580254,0.662437129580963,-1.0,0.0,0.0,0.0,0.0,0.0,0.0,0.0,0.0,-9.303340733580979e-05,-0.000631625775487267,-2.5684036735216154e-05,-1.0,0.0,0.0,0.0,0.0,0.0,0.0,0.0,0.0,0.0,0.0,0.0,-1.0,0.0,0.0,0.0,0.0,0.0,0.0,0.0,0.0
1615407368.562,0,1615407368,562000036,,0.0013479182458499843,-0.0020313829076289112,-0.7491133527748998,0.6624373489577968,-1.0,0.0,0.0,0.0,0.0,0.0,0.0,0.0,0.0,-0.000395449543801916,-0.0005665673198346523,0.0001864756882503373,-1.0,0.0,0.0,0.0,0.0,0.0,0.0,0.0,0.0,0.0,0.0,0.0,-1.0,0.0,0.0,0.0,0.0,0.0,0.0,0.0,0.0
1615407368.582,0,1615407368,582000017,,0.0013527921108033416,-0.002026411700043859,-0.7491133976703261,0.6624373034785607,-1.0,0.0,0.0,0.0,0.0,0.0,0.0,0.0,0.0,-0.00027648931113900675,-0.0001153968499325215,-0.00013681878018713178,-1.0,0.0,0.0,0.0,0.0,0.0,0.0,0.0,0.0,0.0,0.0,0.0,-1.0,0.0,0.0,0.0,0.0,0.0,0.0,0.0,0.0
1615407368.602,0,1615407368,601999998,,0.0013555957913168161,-0.0020191002361676924,-0.7491133274849315,0.662437399441442,-1.0,0.0,0.0,0.0,0.0,0.0,0.0,0.0,0.0,-0.0003234177024187964,0.00018061268010005862,6.84120126411053e-05,-1.0,0.0,0.0,0.0,0.0,0.0,0.0,0.0,0.0,0.0,0.0,0.0,-1.0,0.0,0.0,0.0,0.0,0.0,0.0,0.0,0.0
1615407368.622,0,1615407368,621999979,,0.0013508357413990128,-0.0020268212727953577,-0.7491133264683711,0.6624373867361499,-1.0,0.0,0.0,0.0,0.0,0.0,0.0,0.0,0.0,-0.00010419556526655542,-0.0001912624775051616,-5.7798708164513126e-05,-1.0,0.0,0.0,0.0,0.0,0.0,0.0,0.0,0.0,0.0,0.0,0.0,-1.0,0.0,0.0,0.0,0.0,0.0,0.0,0.0,0.0
1615407368.642,0,1615407368,641999960,,0.0013466187496897503,-0.0020257195090482736,-0.7491134675585621,0.6624372391410381,-1.0,0.0,0.0,0.0,0.0,0.0,0.0,0.0,0.0,-0.00017647034966220893,-0.00021022690046082314,-5.9588565524163685e-05,-1.0,0.0,0.0,0.0,0.0,0.0,0.0,0.0,0.0,0.0,0.0,0.0,-1.0,0.0,0.0,0.0,0.0,0.0,0.0,0.0,0.0
1615407368.662,0,1615407368,661999941,,0.0013605925831252279,-0.0020269668658032076,-0.7491132449295841,0.6624374585304009,-1.0,0.0,0.0,0.0,0.0,0.0,0.0,0.0,0.0,-0.0001226158075585071,0.00021970543113530015,-0.00014065481934012465,-1.0,0.0,0.0,0.0,0.0,0.0,0.0,0.0,0.0,0.0,0.0,0.0,-1.0,0.0,0.0,0.0,0.0,0.0,0.0,0.0,0.0
1615407368.682,0,1615407368,681999922,,0.001356376505482231,-0.002025866016360139,-0.7491133474322913,0.6624373546294369,-1.0,0.0,0.0,0.0,0.0,0.0,0.0,0.0,0.0,-0.00018851079726940698,4.929057494109518e-05,0.00020096934326921953,-1.0,0.0,0.0,0.0,0.0,0.0,0.0,0.0,0.0,0.0,0.0,0.0,-1.0,0.0,0.0,0.0,0.0,0.0,0.0,0.0,0.0
1615407368.702,0,1615407368,701999903,,0.001354229369205254,-0.0020271066610916787,-0.7491133222552385,0.6624373836983534,-1.0,0.0,0.0,0.0,0.0,0.0,0.0,0.0,0.0,-0.0001406348811893679,-8.39195971310097e-05,6.516635192981414e-06,-1.0,0.0,0.0,0.0,0.0,0.0,0.0,0.0,0.0,0.0,0.0,0.0,-1.0,0.0,0.0,0.0,0.0,0.0,0.0,0.0,0.0
1615407368.722,0,1615407368,721999884,,0.001356492974402655,-0.0020286179533224196,-0.7491133582257361,0.6624373337635567,-1.0,0.0,0.0,0.0,0.0,0.0,0.0,0.0,0.0,-4.18649369432603e-05,-7.008570289186508e-05,0.000389774697726313,-1.0,0.0,0.0,0.0,0.0,0.0,0.0,0.0,0.0,0.0,0.0,0.0,-1.0,0.0,0.0,0.0,0.0,0.0,0.0,0.0,0.0
1615407368.742,0,1615407368,742000103,,0.0013546149343496407,-0.002025446953836023,-0.7491132827161106,0.6624374326993527,-1.0,0.0,0.0,0.0,0.0,0.0,0.0,0.0,0.0,-0.000135596313332021,-3.96469412270047e-05,7.763330186491254e-06,-1.0,0.0,0.0,0.0,0.0,0.0,0.0,0.0,0.0,0.0,0.0,0.0,-1.0,0.0,0.0,0.0,0.0,0.0,0.0,0.0,0.0
1615407368.762,0,1615407368,762000084,,0.001354807666358296,-0.0020246170235267177,-0.7491132891192293,0.6624374276013286,-1.0,0.0,0.0,0.0,0.0,0.0,0.0,0.0,0.0,-7.207989939235097e-05,1.4201681836514483e-05,0.00010602353797773916,-1.0,0.0,0.0,0.0,0.0,0.0,0.0,0.0,0.0,0.0,0.0,0.0,-1.0,0.0,0.0,0.0,0.0,0.0,0.0,0.0,0.0
1615407368.782,0,1615407368,782000065,,0.0013461792174624535,-0.002023244487515384,-0.7491134104018583,0.6624373122336598,-1.0,0.0,0.0,0.0,0.0,0.0,0.0,0.0,0.0,-0.0002780264909049262,-0.00016655232866261057,0.0002402486984828965,-1.0,0.0,0.0,0.0,0.0,0.0,0.0,0.0,0.0,0.0,0.0,0.0,-1.0,0.0,0.0,0.0,0.0,0.0,0.0,0.0,0.0
1615407368.802,0,1615407368,802000046,,0.00135753563877003,-0.002020885869575598,-0.7491133831977541,0.6624373270214372,-1.0,0.0,0.0,0.0,0.0,0.0,0.0,0.0,0.0,-7.029013831941681e-06,0.00024832373833927964,0.000102046160732437,-1.0,0.0,0.0,0.0,0.0,0.0,0.0,0.0,0.0,0.0,0.0,0.0,-1.0,0.0,0.0,0.0,0.0,0.0,0.0,0.0,0.0
1615407368.822,0,1615407368,822000027,,0.0013597983885314988,-0.002022397439220696,-0.7491132591618295,0.662437458032743,-1.0,0.0,0.0,0.0,0.0,0.0,0.0,0.0,0.0,7.96582010148877e-05,0.00019064128095967617,5.5359247539871044e-05,-1.0,0.0,0.0,0.0,0.0,0.0,0.0,0.0,0.0,0.0,0.0,0.0,-1.0,0.0,0.0,0.0,0.0,0.0,0.0,0.0,0.0
1615407368.842,0,1615407368,842000008,,0.0013617907450095771,-0.0020283192413880643,-0.7491133288574279,0.6624373570196394,-1.0,0.0,0.0,0.0,0.0,0.0,0.0,0.0,0.0,0.0002490158256590454,5.28055781707272e-05,0.0002520956954396229,-1.0,0.0,0.0,0.0,0.0,0.0,0.0,0.0,0.0,0.0,0.0,0.0,-1.0,0.0,0.0,0.0,0.0,0.0,0.0,0.0,0.0
1615407368.862,0,1615407368,861999989,,0.001357301317075236,-0.002031629958003627,-0.7491132665227952,0.66243742657884,-1.0,0.0,0.0,0.0,0.0,0.0,0.0,0.0,0.0,0.00014639772922487318,-0.0001727629200815418,0.00023481077143431715,-1.0,0.0,0.0,0.0,0.0,0.0,0.0,0.0,0.0,0.0,0.0,0.0,-1.0,0.0,0.0,0.0,0.0,0.0,0.0,0.0,0.0
1615407368.882,0,1615407368,881999969,,0.0013484007172360215,-0.0020346702183621007,-0.7491132037152979,0.6624375064502395,-1.0,0.0,0.0,0.0,0.0,0.0,0.0,0.0,0.0,-4.591785096077201e-05,-0.0004220139421646671,0.000346074662662862,-1.0,0.0,0.0,0.0,0.0,0.0,0.0,0.0,0.0,0.0,0.0,0.0,-1.0,0.0,0.0,0.0,0.0,0.0,0.0,0.0,0.0
1615407368.902,0,1615407368,901999950,,0.001353276252897675,-0.00202970026988345,-0.7491131796148092,0.6624375390084627,-1.0,0.0,0.0,0.0,0.0,0.0,0.0,0.0,0.0,-4.709111909837189e-05,-2.05318874927444e-05,0.00076016658314765,-1.0,0.0,0.0,0.0,0.0,0.0,0.0,0.0,0.0,0.0,0.0,0.0,-1.0,0.0,0.0,0.0,0.0,0.0,0.0,0.0,0.0
1615407368.922,0,1615407368,921999931,,0.0013596991656478856,-0.002037002059361219,-0.749113071846237,0.6624376253126657,-1.0,0.0,0.0,0.0,0.0,0.0,0.0,0.0,0.0,-3.535231255488713e-05,3.006114269406957e-06,0.000466879925004179,-1.0,0.0,0.0,0.0,0.0,0.0,0.0,0.0,0.0,0.0,0.0,0.0,-1.0,0.0,0.0,0.0,0.0,0.0,0.0,0.0,0.0
1615407368.942,0,1615407368,941999912,,0.0013622334156818672,-0.0020341027058933033,-0.7491131126115614,0.6624375829160973,-1.0,0.0,0.0,0.0,0.0,0.0,0.0,0.0,0.0,-1.640544897318585e-05,0.00013330022487707208,0.00047695382631834444,-1.0,0.0,0.0,0.0,0.0,0.0,0.0,0.0,0.0,0.0,0.0,0.0,-1.0,0.0,0.0,0.0,0.0,0.0,0.0,0.0,0.0
1615407368.962,0,1615407368,961999893,,0.0013554036085681766,-0.0020394848932533275,-0.749113079342829,0.6624376179988063,-1.0,0.0,0.0,0.0,0.0,0.0,0.0,0.0,0.0,-2.7697967473936643e-05,-0.0002110912581054302,4.119095325110596e-05,-1.0,0.0,0.0,0.0,0.0,0.0,0.0,0.0,0.0,0.0,0.0,0.0,-1.0,0.0,0.0,0.0,0.0,0.0,0.0,0.0,0.0
1615407368.982,0,1615407368,982000113,,0.0013535250963762444,-0.002036316710503092,-0.7491129293954326,0.6624378011531813,-1.0,0.0,0.0,0.0,0.0,0.0,0.0,0.0,0.0,-0.00016011088562113246,-0.00011972914272202599,-0.00010723466337490497,-1.0,0.0,0.0,0.0,0.0,0.0,0.0,0.0,0.0,0.0,0.0,0.0,-1.0,0.0,0.0,0.0,0.0,0.0,0.0,0.0,0.0
1615407369.002,0,1615407369,2000093,,0.0013542585518000773,-0.002026666910126285,-0.7491130089760588,0.6624377392539209,-1.0,0.0,0.0,0.0,0.0,0.0,0.0,0.0,0.0,-0.0003594956730305632,0.00012006696905916939,-9.210997706231797e-05,-1.0,0.0,0.0,0.0,0.0,0.0,0.0,0.0,0.0,0.0,0.0,0.0,-1.0,0.0,0.0,0.0,0.0,0.0,0.0,0.0,0.0
1615407369.022,0,1615407369,22000074,,0.0013632711007678148,-0.002026381139164951,-0.7491128645931872,0.6624378849162945,-1.0,0.0,0.0,0.0,0.0,0.0,0.0,0.0,0.0,-6.0475561691211513e-05,0.0003225073812706457,-0.00025082936071907586,-1.0,0.0,0.0,0.0,0.0,0.0,0.0,0.0,0.0,0.0,0.0,0.0,-1.0,0.0,0.0,0.0,0.0,0.0,0.0,0.0,0.0
1615407369.042,0,1615407369,42000055,,0.0013564387926418427,-0.002031763886950826,-0.7491130161507987,0.662437711066303,-1.0,0.0,0.0,0.0,0.0,0.0,0.0,0.0,0.0,-4.5407766184599544e-05,-9.955241465982025e-05,-7.385838035588403e-05,-1.0,0.0,0.0,0.0,0.0,0.0,0.0,0.0,0.0,0.0,0.0,0.0,-1.0,0.0,0.0,0.0,0.0,0.0,0.0,0.0,0.0
1615407369.062,0,1615407369,62000036,,0.0013607699378078216,-0.002035618826832661,-0.7491130898357017,0.6624376070227114,-1.0,0.0,0.0,0.0,0.0,0.0,0.0,0.0,0.0,0.00015686967862742194,-2.522524301998323e-05,6.725638110684776e-05,-1.0,0.0,0.0,0.0,0.0,0.0,0.0,0.0,0.0,0.0,0.0,0.0,-1.0,0.0,0.0,0.0,0.0,0.0,0.0,0.0,0.0
1615407369.082,0,1615407369,82000017,,0.001356549136335806,-0.0020345218375552123,-0.7491127896890123,0.6624379584683225,-1.0,0.0,0.0,0.0,0.0,0.0,0.0,0.0,0.0,-2.6516109251152953e-05,-6.756678515715828e-05,0.00023607033237202938,-1.0,0.0,0.0,0.0,0.0,0.0,0.0,0.0,0.0,0.0,0.0,0.0,-1.0,0.0,0.0,0.0,0.0,0.0,0.0,0.0,0.0
1615407369.102,0,1615407369,101999998,,0.0013564711472493728,-0.002038105102345069,-0.7491130118648227,0.6624376963673131,-1.0,0.0,0.0,0.0,0.0,0.0,0.0,0.0,0.0,7.816311619142737e-05,-0.0001268090606076198,2.059966990559109e-05,-1.0,0.0,0.0,0.0,0.0,0.0,0.0,0.0,0.0,0.0,0.0,0.0,-1.0,0.0,0.0,0.0,0.0,0.0,0.0,0.0,0.0
1615407369.122,0,1615407369,121999979,,0.0013437014309468302,-0.0020320540762314805,-0.7491130659362767,0.6624376798358071,-1.0,0.0,0.0,0.0,0.0,0.0,0.0,0.0,0.0,-0.0003955012212586438,-0.00028053980280571595,-0.00010950926421710822,-1.0,0.0,0.0,0.0,0.0,0.0,0.0,0.0,0.0,0.0,0.0,0.0,-1.0,0.0,0.0,0.0,0.0,0.0,0.0,0.0,0.0
1615407369.142,0,1615407369,141999960,,0.0013415515085656083,-0.002033298642826303,-0.7491130710270577,0.6624376746174612,-1.0,0.0,0.0,0.0,0.0,0.0,0.0,0.0,0.0,-0.0002865273394015339,-0.0002666145854847626,-0.0002860027625218881,-1.0,0.0,0.0,0.0,0.0,0.0,0.0,0.0,0.0,0.0,0.0,0.0,-1.0,0.0,0.0,0.0,0.0,0.0,0.0,0.0,0.0
1615407369.162,0,1615407369,161999941,,0.0013394017919240602,-0.002034543715465792,-0.7491129961123959,0.6624377598614222,-1.0,0.0,0.0,0.0,0.0,0.0,0.0,0.0,0.0,-0.00020488560296921674,-0.00026997053085978806,1.68276364847054e-05,-1.0,0.0,0.0,0.0,0.0,0.0,0.0,0.0,0.0,0.0,0.0,0.0,-1.0,0.0,0.0,0.0,0.0,0.0,0.0,0.0,0.0
1615407369.182,0,1615407369,181999922,,0.001351507086631894,-0.0020442684535751272,-0.7491130206097217,0.6624376776331967,-1.0,0.0,0.0,0.0,0.0,0.0,0.0,0.0,0.0,5.2306371452198546e-05,-1.2059207111585288e-05,0.0003066253218786371,-1.0,0.0,0.0,0.0,0.0,0.0,0.0,0.0,0.0,0.0,0.0,0.0,-1.0,0.0,0.0,0.0,0.0,0.0,0.0,0.0,0.0
1615407369.202,0,1615407369,201999903,,0.001349628513788526,-0.002041101968609305,-0.7491129754910488,0.6624377422494706,-1.0,0.0,0.0,0.0,0.0,0.0,0.0,0.0,0.0,-8.620574415679417e-05,3.217836041435539e-05,8.829214016664266e-05,-1.0,0.0,0.0,0.0,0.0,0.0,0.0,0.0,0.0,0.0,0.0,0.0,-1.0,0.0,0.0,0.0,0.0,0.0,0.0,0.0,0.0
1615407369.222,0,1615407369,221999884,,0.0013389280479779615,-0.0020373936332646557,-0.7491132217687699,0.6624374968780673,-1.0,0.0,0.0,0.0,0.0,0.0,0.0,0.0,0.0,-0.00039970155041153615,-0.00019893899430366085,-0.00026869391970007984,-1.0,0.0,0.0,0.0,0.0,0.0,0.0,0.0,0.0,0.0,0.0,0.0,-1.0,0.0,0.0,0.0,0.0,0.0,0.0,0.0,0.0
1615407369.242,0,1615407369,242000103,,0.0013341666093113589,-0.0020451195283172443,-0.7491133942856933,0.6624372875882975,-1.0,0.0,0.0,0.0,0.0,0.0,0.0,0.0,0.0,-0.00015415567945576013,-0.000429207028650248,-0.00020929828247155427,-1.0,0.0,0.0,0.0,0.0,0.0,0.0,0.0,0.0,0.0,0.0,0.0,-1.0,0.0,0.0,0.0,0.0,0.0,0.0,0.0,0.0
1615407369.262,0,1615407369,262000084,,0.0013384982289994546,-0.0020489765340831897,-0.7491133768689976,0.6624372866268785,-1.0,0.0,0.0,0.0,0.0,0.0,0.0,0.0,0.0,8.558523141097456e-05,-0.00025165885619522234,-0.0002590614095464426,-1.0,0.0,0.0,0.0,0.0,0.0,0.0,0.0,0.0,0.0,0.0,0.0,-1.0,0.0,0.0,0.0,0.0,0.0,0.0,0.0,0.0
1615407369.282,0,1615407369,282000065,,0.0013428312559861924,-0.002052833558385351,-0.7491135331932447,0.6624370891377784,-1.0,0.0,0.0,0.0,0.0,0.0,0.0,0.0,0.0,0.0002655328562505048,-0.00013515745486332271,-0.0002929299625639178,-1.0,0.0,0.0,0.0,0.0,0.0,0.0,0.0,0.0,0.0,0.0,0.0,-1.0,0.0,0.0,0.0,0.0,0.0,0.0,0.0,0.0
1615407369.302,0,1615407369,302000046,,0.0013383414328172665,-0.002056148555597963,-0.7491134652465722,0.6624371647798749,-1.0,0.0,0.0,0.0,0.0,0.0,0.0,0.0,0.0,0.00015733462092562664,-0.0002724421259592241,-0.0003050265729143689,-1.0,0.0,0.0,0.0,0.0,0.0,0.0,0.0,0.0,0.0,0.0,0.0,-1.0,0.0,0.0,0.0,0.0,0.0,0.0,0.0,0.0
1615407369.322,0,1615407369,322000027,,0.0013338516775464491,-0.002059463006853309,-0.7491133448708928,0.6624372996655372,-1.0,0.0,0.0,0.0,0.0,0.0,0.0,0.0,0.0,8.633430068166002e-05,-0.0003862443772957113,-9.687721077231756e-05,-1.0,0.0,0.0,0.0,0.0,0.0,0.0,0.0,0.0,0.0,0.0,0.0,-1.0,0.0,0.0,0.0,0.0,0.0,0.0,0.0,0.0
1615407369.342,0,1615407369,342000008,,0.001331973555825292,-0.0020562964516564787,-0.7491131398330436,0.6624375451473358,-1.0,0.0,0.0,0.0,0.0,0.0,0.0,0.0,0.0,-9.536620572101433e-05,-0.0002234165419709977,-0.00019781774528538878,-1.0,0.0,0.0,0.0,0.0,0.0,0.0,0.0,0.0,0.0,0.0,0.0,-1.0,0.0,0.0,0.0,0.0,0.0,0.0,0.0,0.0
1615407369.362,0,1615407369,361999989,,0.0013342364190398366,-0.002057811742419531,-0.7491132004974388,0.6624374672861546,-1.0,0.0,0.0,0.0,0.0,0.0,0.0,0.0,0.0,1.1671212591165663e-05,-0.00011659891995905605,-0.00026402635417268277,-1.0,0.0,0.0,0.0,0.0,0.0,0.0,0.0,0.0,0.0,0.0,0.0,-1.0,0.0,0.0,0.0,0.0,0.0,0.0,0.0,0.0
1615407369.382,0,1615407369,381999969,,0.001329747231628514,-0.0020611268800251013,-0.7491132786887903,0.6624373775840364,-1.0,0.0,0.0,0.0,0.0,0.0,0.0,0.0,0.0,-1.9333383270230853e-05,-0.00025014753222944936,-0.00030747666567127856,-1.0,0.0,0.0,0.0,0.0,0.0,0.0,0.0,0.0,0.0,0.0,0.0,-1.0,0.0,0.0,0.0,0.0,0.0,0.0,0.0,0.0
1615407369.402,0,1615407369,401999950,,0.001333809557204123,-0.0020693948255288215,-0.7491134243676609,0.6624371789002169,-1.0,0.0,0.0,0.0,0.0,0.0,0.0,0.0,0.0,0.0002990667574608351,-0.00023652851644725292,-0.0001323634478945667,-1.0,0.0,0.0,0.0,0.0,0.0,0.0,0.0,0.0,0.0,0.0,0.0,-1.0,0.0,0.0,0.0,0.0,0.0,0.0,0.0,0.0
1615407369.422,0,1615407369,421999931,,0.0013407545975632192,-0.002066771342095124,-0.7491134104723229,0.6624371887838527,-1.0,0.0,0.0,0.0,0.0,0.0,0.0,0.0,0.0,0.0002918773090058704,6.714969165315705e-05,-9.849316430873774e-05,-1.0,0.0,0.0,0.0,0.0,0.0,0.0,0.0,0.0,0.0,0.0,0.0,-1.0,0.0,0.0,0.0,0.0,0.0,0.0,0.0,0.0
1615407369.442,0,1615407369,441999912,,0.0013489449288723709,-0.00207206006592367,-0.7491133258431588,0.6624372513369575,-1.0,0.0,0.0,0.0,0.0,0.0,0.0,0.0,0.0,0.00019842526194505675,0.00017528709911273355,-0.00015378603779476742,-1.0,0.0,0.0,0.0,0.0,0.0,0.0,0.0,0.0,0.0,0.0,0.0,-1.0,0.0,0.0,0.0,0.0,0.0,0.0,0.0,0.0
1615407369.462,0,1615407369,461999893,,0.0013400449809441053,-0.002075105823782231,-0.74911341755977,0.6624371561493143,-1.0,0.0,0.0,0.0,0.0,0.0,0.0,0.0,0.0,1.2120305272276485e-05,-0.00018366273302952168,-0.00021380698894295496,-1.0,0.0,0.0,0.0,0.0,0.0,0.0,0.0,0.0,0.0,0.0,0.0,-1.0,0.0,0.0,0.0,0.0,0.0,0.0,0.0,0.0
1615407369.482,0,1615407369,482000113,,0.0013425797719032642,-0.0020722121706681714,-0.7491134253287723,0.6624371512894409,-1.0,0.0,0.0,0.0,0.0,0.0,0.0,0.0,0.0,-2.1347883218249294e-05,2.0841657563777557e-05,-0.0002531628757984382,-1.0,0.0,0.0,0.0,0.0,0.0,0.0,0.0,0.0,0.0,0.0,0.0,-1.0,0.0,0.0,0.0,0.0,0.0,0.0,0.0,0.0
1615407369.502,0,1615407369,502000093,,0.0013404320722466769,-0.0020734588339014095,-0.7491133421949142,0.6624372457492779,-1.0,0.0,0.0,0.0,0.0,0.0,0.0,0.0,0.0,-4.3314948589353984e-05,-6.885649186238161e-05,-0.00026533331895348166,-1.0,0.0,0.0,0.0,0.0,0.0,0.0,0.0,0.0,0.0,0.0,0.0,-1.0,0.0,0.0,0.0,0.0,0.0,0.0,0.0,0.0
1615407369.522,0,1615407369,522000074,,0.0013364849599121098,-0.0020679537999785075,-0.7491132981699865,0.6624373207179063,-1.0,0.0,0.0,0.0,0.0,0.0,0.0,0.0,0.0,-0.0002375908175703925,6.1485765986391515e-06,-0.00020831803221098722,-1.0,0.0,0.0,0.0,0.0,0.0,0.0,0.0,0.0,0.0,0.0,0.0,-1.0,0.0,0.0,0.0,0.0,0.0,0.0,0.0,0.0
1615407369.542,0,1615407369,542000055,,0.0013317259935406976,-0.0020756814091508883,-0.7491133216951853,0.6624372795301995,-1.0,0.0,0.0,0.0,0.0,0.0,0.0,0.0,0.0,-8.156593769892409e-05,-0.0003261037683733691,-0.00046327338018101383,-1.0,0.0,0.0,0.0,0.0,0.0,0.0,0.0,0.0,0.0,0.0,0.0,-1.0,0.0,0.0,0.0,0.0,0.0,0.0,0.0,0.0
1615407369.562,0,1615407369,562000036,,0.0013384004033823202,-0.002077469704984861,-0.7491133688915017,0.6624372071011787,-1.0,0.0,0.0,0.0,0.0,0.0,0.0,0.0,0.0,0.00013216309537322166,-7.263731268342667e-05,-0.00032563279061829573,-1.0,0.0,0.0,0.0,0.0,0.0,0.0,0.0,0.0,0.0,0.0,0.0,-1.0,0.0,0.0,0.0,0.0,0.0,0.0,0.0,0.0
1615407369.582,0,1615407369,582000017,,0.0013277001962830287,-0.002073763838070504,-0.7491132735048797,0.662437348112662,-1.0,0.0,0.0,0.0,0.0,0.0,0.0,0.0,0.0,-0.00026885484185874115,-0.0002450907367664998,-0.0002465725709876184,-1.0,0.0,0.0,0.0,0.0,0.0,0.0,0.0,0.0,0.0,0.0,0.0,-1.0,0.0,0.0,0.0,0.0,0.0,0.0,0.0,0.0
1615407369.602,0,1615407369,601999998,,0.001332574611322727,-0.0020687996227645245,-0.7491134123130021,0.6624371968766521,-1.0,0.0,0.0,0.0,0.0,0.0,0.0,0.0,0.0,-0.00019324231367759187,6.149427131499661e-05,-0.00012620665127689303,-1.0,0.0,0.0,0.0,0.0,0.0,0.0,0.0,0.0,0.0,0.0,0.0,-1.0,0.0,0.0,0.0,0.0,0.0,0.0,0.0,0.0
1615407369.622,0,1615407369,621999979,,0.0013283554526966688,-0.002067703885788498,-0.7491135948740039,0.6624370023235258,-1.0,0.0,0.0,0.0,0.0,0.0,0.0,0.0,0.0,-0.00023478977008944442,-3.3343329389572606e-05,-2.4621132150880906e-05,-1.0,0.0,0.0,0.0,0.0,0.0,0.0,0.0,0.0,0.0,0.0,0.0,-1.0,0.0,0.0,0.0,0.0,0.0,0.0,0.0,0.0
1615407369.642,0,1615407369,641999960,,0.001323865539089705,-0.0020710203076402863,-0.7491136289522556,0.662436962414464,-1.0,0.0,0.0,0.0,0.0,0.0,0.0,0.0,0.0,-0.00020476583100121953,-0.0001955661411600405,8.713502755120646e-05,-1.0,0.0,0.0,0.0,0.0,0.0,0.0,0.0,0.0,0.0,0.0,0.0,-1.0,0.0,0.0,0.0,0.0,0.0,0.0,0.0,0.0
1615407369.662,0,1615407369,661999941,,0.0013237869199758502,-0.002074608402494418,-0.7491136248034144,0.6624369560358603,-1.0,0.0,0.0,0.0,0.0,0.0,0.0,0.0,0.0,-4.754714614331519e-05,-0.0002346356522277646,1.1712850530777087e-05,-1.0,0.0,0.0,0.0,0.0,0.0,0.0,0.0,0.0,0.0,0.0,0.0,-1.0,0.0,0.0,0.0,0.0,0.0,0.0,0.0,0.0
1615407369.682,0,1615407369,681999922,,0.0013213674994551126,-0.0020802664781471494,-0.7491135475413884,0.662437030493667,-1.0,0.0,0.0,0.0,0.0,0.0,0.0,0.0,0.0,8.823013713355783e-05,-0.00033000068760680504,-0.00012774859975535517,-1.0,0.0,0.0,0.0,0.0,0.0,0.0,0.0,0.0,0.0,0.0,0.0,-1.0,0.0,0.0,0.0,0.0,0.0,0.0,0.0,0.0
1615407369.702,0,1615407369,701999903,,0.001327887343610673,-0.0020873243217862133,-0.749113733072348,0.662436785448083,-1.0,0.0,0.0,0.0,0.0,0.0,0.0,0.0,0.0,7.495146242549481e-05,-0.000244181915808445,-0.0001191292845017523,-1.0,0.0,0.0,0.0,0.0,0.0,0.0,0.0,0.0,0.0,0.0,0.0,-1.0,0.0,0.0,0.0,0.0,0.0,0.0,0.0,0.0
1615407369.722,0,1615407369,721999884,,0.0013348325289744116,-0.002084701394685513,-0.7491138432678599,0.662436655135169,-1.0,0.0,0.0,0.0,0.0,0.0,0.0,0.0,0.0,0.00012347463374548173,9.360087832562935e-05,-0.00019097648705275689,-1.0,0.0,0.0,0.0,0.0,0.0,0.0,0.0,0.0,0.0,0.0,0.0,-1.0,0.0,0.0,0.0,0.0,0.0,0.0,0.0,0.0
1615407369.742,0,1615407369,742000103,,0.0013370951829967215,-0.0020862186291728526,-0.7491138018171695,0.66243669266982,-1.0,0.0,0.0,0.0,0.0,0.0,0.0,0.0,0.0,0.000200423556795513,0.00012523419783852215,-0.00021437955633051576,-1.0,0.0,0.0,0.0,0.0,0.0,0.0,0.0,0.0,0.0,0.0,0.0,-1.0,0.0,0.0,0.0,0.0,0.0,0.0,0.0,0.0
1615407369.762,0,1615407369,762000084,,0.001339899876103337,-0.00207891339533304,-0.7491138201653265,0.6624366892199794,-1.0,0.0,0.0,0.0,0.0,0.0,0.0,0.0,0.0,-3.170713924539455e-05,0.0003258644578426352,6.386098979925439e-05,-1.0,0.0,0.0,0.0,0.0,0.0,0.0,0.0,0.0,0.0,0.0,0.0,-1.0,0.0,0.0,0.0,0.0,0.0,0.0,0.0,0.0
1615407369.782,0,1615407369,782000065,,0.001326588013540574,-0.00208168869940133,-0.7491136852641359,0.6624368598488359,-1.0,0.0,0.0,0.0,0.0,0.0,0.0,0.0,0.0,-0.0002626188524474342,-0.00021998985682526785,0.00012141772492381228,-1.0,0.0,0.0,0.0,0.0,0.0,0.0,0.0,0.0,0.0,0.0,0.0,-1.0,0.0,0.0,0.0,0.0,0.0,0.0,0.0,0.0
1615407369.802,0,1615407369,802000046,,0.0013332625271744172,-0.002083476386572053,-0.7491138262453237,0.6624366814007746,-1.0,0.0,0.0,0.0,0.0,0.0,0.0,0.0,0.0,1.4482940370563558e-05,-5.8258793835110355e-05,-0.00023804057110537514,-1.0,0.0,0.0,0.0,0.0,0.0,0.0,0.0,0.0,0.0,0.0,0.0,-1.0,0.0,0.0,0.0,0.0,0.0,0.0,0.0,0.0
1615407369.822,0,1615407369,822000027,,0.0013402075852413117,-0.0020808537188361227,-0.7491137681545326,0.6624367413215746,-1.0,0.0,0.0,0.0,0.0,0.0,0.0,0.0,0.0,8.381042588197466e-05,0.0002054732104335775,4.832769513592583e-05,-1.0,0.0,0.0,0.0,0.0,0.0,0.0,0.0,0.0,0.0,0.0,0.0,-1.0,0.0,0.0,0.0,0.0,0.0,0.0,0.0,0.0
1615407369.842,0,1615407369,842000008,,0.0013427415826355697,-0.0020779606978540166,-0.7491136324771407,0.6624368987015171,-1.0,0.0,0.0,0.0,0.0,0.0,0.0,0.0,0.0,5.9563421254110776e-05,0.0002897604420991881,8.987807132295657e-05,-1.0,0.0,0.0,0.0,0.0,0.0,0.0,0.0,0.0,0.0,0.0,0.0,-1.0,0.0,0.0,0.0,0.0,0.0,0.0,0.0,0.0
1615407369.862,0,1615407369,861999989,,0.001342663913524815,-0.002081548890128138,-0.7491134242310138,0.6624371230877075,-1.0,0.0,0.0,0.0,0.0,0.0,0.0,0.0,0.0,0.00014728164125615644,0.00010758396612331572,0.00025335845397386693,-1.0,0.0,0.0,0.0,0.0,0.0,0.0,0.0,0.0,0.0,0.0,0.0,-1.0,0.0,0.0,0.0,0.0,0.0,0.0,0.0,0.0
1615407369.882,0,1615407369,881999969,,0.0013446578469444499,-0.002087477684102986,-0.7491134687415428,0.6624370500524608,-1.0,0.0,0.0,0.0,0.0,0.0,0.0,0.0,0.0,0.00028347576841555226,-2.555312208900681e-05,0.00036061527464084154,-1.0,0.0,0.0,0.0,0.0,0.0,0.0,0.0,0.0,0.0,0.0,0.0,-1.0,0.0,0.0,0.0,0.0,0.0,0.0,0.0,0.0
1615407369.902,0,1615407369,901999950,,0.0013451237172346403,-0.0020822432863875193,-0.7491135905877626,0.6624369277914628,-1.0,0.0,0.0,0.0,0.0,0.0,0.0,0.0,0.0,6.79723039049438e-05,0.00014833731296905975,0.0005434885749093726,-1.0,0.0,0.0,0.0,0.0,0.0,0.0,0.0,0.0,0.0,0.0,0.0,-1.0,0.0,0.0,0.0,0.0,0.0,0.0,0.0,0.0
1615407369.922,0,1615407369,921999931,,0.0013476601492035931,-0.0020793488111845986,-0.7491137693283727,0.6624367296001041,-1.0,0.0,0.0,0.0,0.0,0.0,0.0,0.0,0.0,5.155757691790643e-05,0.0002512063096270361,0.00014249334078571472,-1.0,0.0,0.0,0.0,0.0,0.0,0.0,0.0,0.0,0.0,0.0,0.0,-1.0,0.0,0.0,0.0,0.0,0.0,0.0,0.0,0.0
1615407369.942,0,1615407369,941999912,,0.0013434443713184966,-0.0020782531541117884,-0.7491138223038893,0.6624366816944134,-1.0,0.0,0.0,0.0,0.0,0.0,0.0,0.0,0.0,-0.00011921714747024475,0.00010372850908877329,-3.0549965759682425e-05,-1.0,0.0,0.0,0.0,0.0,0.0,0.0,0.0,0.0,0.0,0.0,0.0,-1.0,0.0,0.0,0.0,0.0,0.0,0.0,0.0,0.0
1615407369.962,0,1615407369,961999893,,0.0013543341857109327,-0.0020899029591640236,-0.7491139175812525,0.662436515124735,-1.0,0.0,0.0,0.0,0.0,0.0,0.0,0.0,0.0,0.00012111721768056868,7.433143899305774e-05,7.08105528660442e-05,-1.0,0.0,0.0,0.0,0.0,0.0,0.0,0.0,0.0,0.0,0.0,0.0,-1.0,0.0,0.0,0.0,0.0,0.0,0.0,0.0,0.0
1615407369.982,0,1615407369,982000113,,0.001359211760749809,-0.002084938598963374,-0.7491137279511799,0.6624367352204388,-1.0,0.0,0.0,0.0,0.0,0.0,0.0,0.0,0.0,6.269453410989231e-05,0.0002938178594263189,3.495812699170872e-05,-1.0,0.0,0.0,0.0,0.0,0.0,0.0,0.0,0.0,0.0,0.0,0.0,-1.0,0.0,0.0,0.0,0.0,0.0,0.0,0.0,0.0
1615407370.002,0,1615407370,2000093,,0.001359137931875311,-0.0020885250059289326,-0.7491138479142342,0.6624365884147035,-1.0,0.0,0.0,0.0,0.0,0.0,0.0,0.0,0.0,0.00010424766674931653,9.784307391777875e-05,0.00010369087873096391,-1.0,0.0,0.0,0.0,0.0,0.0,0.0,0.0,0.0,0.0,0.0,0.0,-1.0,0.0,0.0,0.0,0.0,0.0,0.0,0.0,0.0
1615407370.022,0,1615407370,22000074,,0.001361405037129891,-0.002090041399827046,-0.7491139332604706,0.6624364824632616,-1.0,0.0,0.0,0.0,0.0,0.0,0.0,0.0,0.0,0.00016413677320592992,9.426103163037196e-05,0.0001487763296872061,-1.0,0.0,0.0,0.0,0.0,0.0,0.0,0.0,0.0,0.0,0.0,0.0,-1.0,0.0,0.0,0.0,0.0,0.0,0.0,0.0,0.0
1615407370.042,0,1615407370,42000055,,0.0013571907514147886,-0.0020889457845125613,-0.7491140248742001,0.6624363909656157,-1.0,0.0,0.0,0.0,0.0,0.0,0.0,0.0,0.0,-1.2697546460209864e-05,-5.446044014729168e-05,-0.0002627522811027566,-1.0,0.0,0.0,0.0,0.0,0.0,0.0,0.0,0.0,0.0,0.0,0.0,-1.0,0.0,0.0,0.0,0.0,0.0,0.0,0.0,0.0
1615407370.062,0,1615407370,62000036,,0.0013573871392782105,-0.0020881210491766338,-0.7491140422847393,0.6624363734748084,-1.0,0.0,0.0,0.0,0.0,0.0,0.0,0.0,0.0,-1.2602959018984843e-05,-8.041633361881428e-06,3.2198062178287346e-05,-1.0,0.0,0.0,0.0,0.0,0.0,0.0,0.0,0.0,0.0,0.0,0.0,-1.0,0.0,0.0,0.0,0.0,0.0,0.0,0.0,0.0
1615407370.082,0,1615407370,82000017,,0.0013599240535949212,-0.002085226497370015,-0.7491138016901498,0.6624366494649537,-1.0,0.0,0.0,0.0,0.0,0.0,0.0,0.0,0.0,-2.741505963606584e-05,0.0001372982041882362,0.00034942594091045496,-1.0,0.0,0.0,0.0,0.0,0.0,0.0,0.0,0.0,0.0,0.0,0.0,-1.0,0.0,0.0,0.0,0.0,0.0,0.0,0.0,0.0
1615407370.102,0,1615407370,101999998,,0.0013619191566991156,-0.0020911539747849018,-0.7491136723887843,0.6624367729009716,-1.0,0.0,0.0,0.0,0.0,0.0,0.0,0.0,0.0,0.0001813519513190692,5.039730442157657e-05,0.00022893824206413443,-1.0,0.0,0.0,0.0,0.0,0.0,0.0,0.0,0.0,0.0,0.0,0.0,-1.0,0.0,0.0,0.0,0.0,0.0,0.0,0.0,0.0
1615407370.122,0,1615407370,121999979,,0.0013621153030205578,-0.0020903291638118397,-0.7491138580471458,0.6624365651499085,-1.0,0.0,0.0,0.0,0.0,0.0,0.0,0.0,0.0,0.00011232688550380657,6.310211488046794e-05,3.554367050237386e-06,-1.0,0.0,0.0,0.0,0.0,0.0,0.0,0.0,0.0,0.0,0.0,0.0,-1.0,0.0,0.0,0.0,0.0,0.0,0.0,0.0,0.0
1615407370.142,0,1615407370,141999960,,0.001368791747201192,-0.002092117418145735,-0.7491137560779749,0.6624366610541795,-1.0,0.0,0.0,0.0,0.0,0.0,0.0,0.0,0.0,0.0002944231216014823,0.00017266938596195234,9.319282696789986e-05,-1.0,0.0,0.0,0.0,0.0,0.0,0.0,0.0,0.0,0.0,0.0,0.0,-1.0,0.0,0.0,0.0,0.0,0.0,0.0,0.0,0.0
1615407370.162,0,1615407370,161999941,,0.0013578237469235512,-0.0020928219542809415,-0.7491137000543593,0.6624367447551559,-1.0,0.0,0.0,0.0,0.0,0.0,0.0,0.0,0.0,-3.9723647215035186e-05,-0.00020667597690768845,0.00015199523104371127,-1.0,0.0,0.0,0.0,0.0,0.0,0.0,0.0,0.0,0.0,0.0,0.0,-1.0,0.0,0.0,0.0,0.0,0.0,0.0,0.0,0.0
1615407370.182,0,1615407370,181999922,,0.001353066976188437,-0.0021005488911727535,-0.7491138422255186,0.6624365692579438,-1.0,0.0,0.0,0.0,0.0,0.0,0.0,0.0,0.0,7.203582177444149e-05,-0.0004115584697635866,-1.3023234632789703e-05,-1.0,0.0,0.0,0.0,0.0,0.0,0.0,0.0,0.0,0.0,0.0,0.0,-1.0,0.0,0.0,0.0,0.0,0.0,0.0,0.0,0.0
1615407370.202,0,1615407370,201999903,,0.0013514631463651722,-0.002092973187344772,-0.7491139595613433,0.6624364638219481,-1.0,0.0,0.0,0.0,0.0,0.0,0.0,0.0,0.0,-0.00018562233089026276,-0.000128651593996543,0.00011622666676715913,-1.0,0.0,0.0,0.0,0.0,0.0,0.0,0.0,0.0,0.0,0.0,0.0,-1.0,0.0,0.0,0.0,0.0,0.0,0.0,0.0,0.0
1615407370.222,0,1615407370,221999884,,0.001353490628287494,-0.002099374263662076,-0.7491141205393228,0.662436257385884,-1.0,0.0,0.0,0.0,0.0,0.0,0.0,0.0,0.0,-0.0002611604920121578,-0.0001906731058337215,5.464838874605826e-05,-1.0,0.0,0.0,0.0,0.0,0.0,0.0,0.0,0.0,0.0,0.0,0.0,-1.0,0.0,0.0,0.0,0.0,0.0,0.0,0.0,0.0
1615407370.242,0,1615407370,242000103,,0.0013513443834888463,-0.002100621552589956,-0.7491141063154404,0.662436273898606,-1.0,0.0,0.0,0.0,0.0,0.0,0.0,0.0,0.0,-0.000188108915074121,-0.00019748910812199922,0.00012799854347730595,-1.0,0.0,0.0,0.0,0.0,0.0,0.0,0.0,0.0,0.0,0.0,0.0,-1.0,0.0,0.0,0.0,0.0,0.0,0.0,0.0,0.0
1615407370.262,0,1615407370,262000084,,0.0013468575584709847,-0.0021039388749943327,-0.7491140025149945,0.6624363898910539,-1.0,0.0,0.0,0.0,0.0,0.0,0.0,0.0,0.0,-0.00012766946595767846,-0.0003031837303791701,0.00039101712770192647,-1.0,0.0,0.0,0.0,0.0,0.0,0.0,0.0,0.0,0.0,0.0,0.0,-1.0,0.0,0.0,0.0,0.0,0.0,0.0,0.0,0.0
1615407370.282,0,1615407370,282000065,,0.0013491239287690031,-0.0021054570801174485,-0.7491140298741491,0.6624363495165562,-1.0,0.0,0.0,0.0,0.0,0.0,0.0,0.0,0.0,1.200746635645784e-05,-0.00015640579790879416,0.0005398402967580864,-1.0,0.0,0.0,0.0,0.0,0.0,0.0,0.0,0.0,0.0,0.0,0.0,-1.0,0.0,0.0,0.0,0.0,0.0,0.0,0.0,0.0
1615407370.302,0,1615407370,302000046,,0.0013513902064088154,-0.0021069762084488727,-0.7491138448726551,0.6624365492753813,-1.0,0.0,0.0,0.0,0.0,0.0,0.0,0.0,0.0,0.0001161744580769088,-9.635023016296376e-05,0.0005463469711269766,-1.0,0.0,0.0,0.0,0.0,0.0,0.0,0.0,0.0,0.0,0.0,0.0,-1.0,0.0,0.0,0.0,0.0,0.0,0.0,0.0,0.0
1615407370.322,0,1615407370,322000027,,0.0013559979017499964,-0.0021064247171438963,-0.7491139093761697,0.662436468669829,-1.0,0.0,0.0,0.0,0.0,0.0,0.0,0.0,0.0,0.00018451089350792757,6.916382176730212e-05,0.00034812508401913867,-1.0,0.0,0.0,0.0,0.0,0.0,0.0,0.0,0.0,0.0,0.0,0.0,-1.0,0.0,0.0,0.0,0.0,0.0,0.0,0.0,0.0
1615407370.342,0,1615407370,342000008,,0.0013585359384237728,-0.002103532335512042,-0.7491139997631518,0.6624363704467549,-1.0,0.0,0.0,0.0,0.0,0.0,0.0,0.0,0.0,0.00010436210419108533,0.00022176284188023013,0.0005354144201594914,-1.0,0.0,0.0,0.0,0.0,0.0,0.0,0.0,0.0,0.0,0.0,0.0,-1.0,0.0,0.0,0.0,0.0,0.0,0.0,0.0,0.0
1615407370.362,0,1615407370,361999989,,0.0013563924719754176,-0.002104780285286233,-0.7491141427686502,0.6624362091578352,-1.0,0.0,0.0,0.0,0.0,0.0,0.0,0.0,0.0,5.1789306959300184e-05,6.301993033891166e-05,0.00039703908864012884,-1.0,0.0,0.0,0.0,0.0,0.0,0.0,0.0,0.0,0.0,0.0,0.0,-1.0,0.0,0.0,0.0,0.0,0.0,0.0,0.0,0.0
1615407370.382,0,1615407370,381999969,,0.0013607297251014114,-0.0021086402558601006,-0.749114163560155,0.6624361644750805,-1.0,0.0,0.0,0.0,0.0,0.0,0.0,0.0,0.0,0.00023340879342403253,4.761366240671263e-05,0.00022635085123090036,-1.0,0.0,0.0,0.0,0.0,0.0,0.0,0.0,0.0,0.0,0.0,0.0,-1.0,0.0,0.0,0.0,0.0,0.0,0.0,0.0,0.0
1615407370.402,0,1615407370,401999950,,0.0013494920789437414,-0.0021137587835955026,-0.7491140638304595,0.6624362839295173,-1.0,0.0,0.0,0.0,0.0,0.0,0.0,0.0,0.0,3.522032029904613e-05,-0.0003923760626889051,0.0002382300672000068,-1.0,0.0,0.0,0.0,0.0,0.0,0.0,0.0,0.0,0.0,0.0,0.0,-1.0,0.0,0.0,0.0,0.0,0.0,0.0,0.0,0.0
1615407370.422,0,1615407370,421999931,,0.001347890140860893,-0.002106185154746766,-0.7491142640033245,0.6624360849493478,-1.0,0.0,0.0,0.0,0.0,0.0,0.0,0.0,0.0,-0.00019718401754979122,-8.1075154098677e-05,-1.1725114117407148e-05,-1.0,0.0,0.0,0.0,0.0,0.0,0.0,0.0,0.0,0.0,0.0,0.0,-1.0,0.0,0.0,0.0,0.0,0.0,0.0,0.0,0.0
1615407370.442,0,1615407370,441999912,,0.0013480869604450283,-0.002105364185689579,-0.7491143834541191,0.6624359520778954,-1.0,0.0,0.0,0.0,0.0,0.0,0.0,0.0,0.0,-0.00014603983070128927,-6.834229107771918e-05,7.190313909589702e-05,-1.0,0.0,0.0,0.0,0.0,0.0,0.0,0.0,0.0,0.0,0.0,0.0,-1.0,0.0,0.0,0.0,0.0,0.0,0.0,0.0,0.0
1615407370.462,0,1615407370,461999893,,0.0013441435686948626,-0.0020998618132541834,-0.7491144691623794,0.6624358806329851,-1.0,0.0,0.0,0.0,0.0,0.0,0.0,0.0,0.0,-0.00032858704287872377,-1.5994454835581968e-05,7.067156253216794e-05,-1.0,0.0,0.0,0.0,0.0,0.0,0.0,0.0,0.0,0.0,0.0,0.0,-1.0,0.0,0.0,0.0,0.0,0.0,0.0,0.0,0.0
1615407370.482,0,1615407370,482000113,,0.001352272003921156,-0.002108541084162866,-0.7491143376882969,0.662435985197625,-1.0,0.0,0.0,0.0,0.0,0.0,0.0,0.0,0.0,-0.0001309926776887422,-4.230926094591752e-06,1.3509108385228403e-05,-1.0,0.0,0.0,0.0,0.0,0.0,0.0,0.0,0.0,0.0,0.0,0.0,-1.0,0.0,0.0,0.0,0.0,0.0,0.0,0.0,0.0
1615407370.502,0,1615407370,502000093,,0.0013501283007942126,-0.0021097895063869974,-0.7491142489908125,0.6624360858986632,-1.0,0.0,0.0,0.0,0.0,0.0,0.0,0.0,0.0,-0.00011386648155710369,-9.774122211022961e-05,-0.00010390607307229336,-1.0,0.0,0.0,0.0,0.0,0.0,0.0,0.0,0.0,0.0,0.0,0.0,-1.0,0.0,0.0,0.0,0.0,0.0,0.0,0.0,0.0
1615407370.522,0,1615407370,522000074,,0.0013544665889107406,-0.0021136487392617058,-0.7491142697468743,0.662436041268041,-1.0,0.0,0.0,0.0,0.0,0.0,0.0,0.0,0.0,0.0001009778939987993,-4.7691196209990205e-05,-0.0003273159257792685,-1.0,0.0,0.0,0.0,0.0,0.0,0.0,0.0,0.0,0.0,0.0,0.0,-1.0,0.0,0.0,0.0,0.0,0.0,0.0,0.0,0.0
1615407370.542,0,1615407370,542000055,,0.001352595665676648,-0.002110484684748048,-0.7491141972207214,0.6624361371949109,-1.0,0.0,0.0,0.0,0.0,0.0,0.0,0.0,0.0,-7.540849286972136e-05,-2.4928523167998793e-05,-0.0005202448335051907,-1.0,0.0,0.0,0.0,0.0,0.0,0.0,0.0,0.0,0.0,0.0,0.0,-1.0,0.0,0.0,0.0,0.0,0.0,0.0,0.0,0.0
1615407370.562,0,1615407370,562000036,,0.001348114327848544,-0.0021138015029256094,-0.7491142065710379,0.6624361251806923,-1.0,0.0,0.0,0.0,0.0,0.0,0.0,0.0,0.0,-0.0001112395762597668,-0.0002450766806791975,-0.0004754685469779082,-1.0,0.0,0.0,0.0,0.0,0.0,0.0,0.0,0.0,0.0,0.0,0.0,-1.0,0.0,0.0,0.0,0.0,0.0,0.0,0.0,0.0
1615407370.582,0,1615407370,582000017,,0.0013527264021746862,-0.0021132496369718865,-0.7491141717896955,0.6624361568718085,-1.0,0.0,0.0,0.0,0.0,0.0,0.0,0.0,0.0,2.2896366224853183e-05,-1.8157312919032695e-05,-0.00033360694565366374,-1.0,0.0,0.0,0.0,0.0,0.0,0.0,0.0,0.0,0.0,0.0,0.0,-1.0,0.0,0.0,0.0,0.0,0.0,0.0,0.0,0.0
1615407370.602,0,1615407370,601999998,,0.0013500440446835233,-0.0021233198322412055,-0.749114147247275,0.6624361578959557,-1.0,0.0,0.0,0.0,0.0,0.0,0.0,0.0,0.0,0.00022465149080494316,-0.00028904255761136695,-0.0003303999319466361,-1.0,0.0,0.0,0.0,0.0,0.0,0.0,0.0,0.0,0.0,0.0,0.0,-1.0,0.0,0.0,0.0,0.0,0.0,0.0,0.0,0.0
1615407370.622,0,1615407370,621999979,,0.0013479035716539725,-0.0021245683498944926,-0.7491141688905608,0.6624361337764514,-1.0,0.0,0.0,0.0,0.0,0.0,0.0,0.0,0.0,0.00013079582109282138,-0.0002845376755542763,-0.0001235405944242492,-1.0,0.0,0.0,0.0,0.0,0.0,0.0,0.0,0.0,0.0,0.0,0.0,-1.0,0.0,0.0,0.0,0.0,0.0,0.0,0.0,0.0
1615407370.642,0,1615407370,641999960,,0.0013478340119727034,-0.0021281571288605085,-0.7491142307725162,0.6624360524192601,-1.0,0.0,0.0,0.0,0.0,0.0,0.0,0.0,0.0,0.0001603384752924659,-0.00025892787957328925,-9.256447997569613e-05,-1.0,0.0,0.0,0.0,0.0,0.0,0.0,0.0,0.0,0.0,0.0,0.0,-1.0,0.0,0.0,0.0,0.0,0.0,0.0,0.0,0.0
1615407370.662,0,1615407370,661999941,,0.0013436242927347105,-0.0021270642396544123,-0.7491143169769513,0.6624359669972912,-1.0,0.0,0.0,0.0,0.0,0.0,0.0,0.0,0.0,-2.5146887411779823e-06,-0.00025463255351721516,-0.00018122062585607232,-1.0,0.0,0.0,0.0,0.0,0.0,0.0,0.0,0.0,0.0,0.0,0.0,-1.0,0.0,0.0,0.0,0.0,0.0,0.0,0.0,0.0
1615407370.682,0,1615407370,681999922,,0.0013391433147178218,-0.0021303831564641346,-0.7491144310858883,0.6624358363657987,-1.0,0.0,0.0,0.0,0.0,0.0,0.0,0.0,0.0,-6.33544843066771e-05,-0.00037446432463602685,0.00010945921582363144,-1.0,0.0,0.0,0.0,0.0,0.0,0.0,0.0,0.0,0.0,0.0,0.0,-1.0,0.0,0.0,0.0,0.0,0.0,0.0,0.0,0.0
1615407370.702,0,1615407370,701999903,,0.0013349326317932395,-0.0021292915074884624,-0.7491143104256933,0.6624359848226716,-1.0,0.0,0.0,0.0,0.0,0.0,0.0,0.0,0.0,-0.00017063938166324676,-0.0003293360180981929,0.00018529055364799744,-1.0,0.0,0.0,0.0,0.0,0.0,0.0,0.0,0.0,0.0,0.0,0.0,-1.0,0.0,0.0,0.0,0.0,0.0,0.0,0.0,0.0
1615407370.722,0,1615407370,721999884,,0.0013327924869732074,-0.002130540048381766,-0.7491143789241781,0.6624359076562288,-1.0,0.0,0.0,0.0,0.0,0.0,0.0,0.0,0.0,-0.00013867334007266747,-0.00029847431284877403,0.00031602119606555636,-1.0,0.0,0.0,0.0,0.0,0.0,0.0,0.0,0.0,0.0,0.0,0.0,-1.0,0.0,0.0,0.0,0.0,0.0,0.0,0.0,0.0
1615407370.742,0,1615407370,742000103,,0.0013358760280262427,-0.0021384891872576082,-0.7491143529696319,0.66243590518187,-1.0,0.0,0.0,0.0,0.0,0.0,0.0,0.0,0.0,-0.00010755829873079453,-0.0002782222098235742,6.066448117211985e-05,-1.0,0.0,0.0,0.0,0.0,0.0,0.0,0.0,0.0,0.0,0.0,0.0,-1.0,0.0,0.0,0.0,0.0,0.0,0.0,0.0,0.0
1615407370.762,0,1615407370,762000084,,0.001338147884126445,-0.0021400090314620864,-0.749114429922112,0.6624358086668133,-1.0,0.0,0.0,0.0,0.0,0.0,0.0,0.0,0.0,3.994110261757427e-06,-0.00015243064426328752,0.00012051447336450488,-1.0,0.0,0.0,0.0,0.0,0.0,0.0,0.0,0.0,0.0,0.0,0.0,-1.0,0.0,0.0,0.0,0.0,0.0,0.0,0.0,0.0
1615407370.782,0,1615407370,782000065,,0.0013404187870507565,-0.002141529502087101,-0.7491141510656874,0.6624361145061474,-1.0,0.0,0.0,0.0,0.0,0.0,0.0,0.0,0.0,9.856082098228916e-05,-6.989110849194637e-05,5.7381941354033486e-05,-1.0,0.0,0.0,0.0,0.0,0.0,0.0,0.0,0.0,0.0,0.0,0.0,-1.0,0.0,0.0,0.0,0.0,0.0,0.0,0.0,0.0
1615407370.802,0,1615407370,802000046,,0.0013315273320582235,-0.0021445779274039665,-0.7491141573757344,0.6624361154403653,-1.0,0.0,0.0,0.0,0.0,0.0,0.0,0.0,0.0,-4.301297591347129e-05,-0.00032060712410828657,-7.280346094174029e-05,-1.0,0.0,0.0,0.0,0.0,0.0,0.0,0.0,0.0,0.0,0.0,0.0,-1.0,0.0,0.0,0.0,0.0,0.0,0.0,0.0,0.0
1615407370.822,0,1615407370,822000027,,0.0013270457484353144,-0.0021478976504314966,-0.7491140673051685,0.6624362155338221,-1.0,0.0,0.0,0.0,0.0,0.0,0.0,0.0,0.0,-5.7291391074067624e-05,-0.0004177585481610269,1.0418264375515469e-05,-1.0,0.0,0.0,0.0,0.0,0.0,0.0,0.0,0.0,0.0,0.0,0.0,-1.0,0.0,0.0,0.0,0.0,0.0,0.0,0.0,0.0
1615407370.842,0,1615407370,842000008,,0.001324905112298054,-0.0021491467582305064,-0.7491140254746823,0.6624362630712273,-1.0,0.0,0.0,0.0,0.0,0.0,0.0,0.0,0.0,-6.42999835506433e-05,-0.00035887355811764374,0.00012138885847235475,-1.0,0.0,0.0,0.0,0.0,0.0,0.0,0.0,0.0,0.0,0.0,0.0,-1.0,0.0,0.0,0.0,0.0,0.0,0.0,0.0,0.0
1615407370.862,0,1615407370,861999989,,0.0013315872155243318,-0.002150936719666925,-0.7491141715180586,0.6624360787106391,-1.0,0.0,0.0,0.0,0.0,0.0,0.0,0.0,0.0,0.000154956029644181,-9.398884271932364e-05,0.00018291581723679532,-1.0,0.0,0.0,0.0,0.0,0.0,0.0,0.0,0.0,0.0,0.0,0.0,-1.0,0.0,0.0,0.0,0.0,0.0,0.0,0.0,0.0
1615407370.882,0,1615407370,881999969,,0.0013226954002145137,-0.002153983862896669,-0.7491142412248197,0.6624360077958921,-1.0,0.0,0.0,0.0,0.0,0.0,0.0,0.0,0.0,-6.0534347890614855e-06,-0.0003940264370301902,0.0003357685286271813,-1.0,0.0,0.0,0.0,0.0,0.0,0.0,0.0,0.0,0.0,0.0,0.0,-1.0,0.0,0.0,0.0,0.0,0.0,0.0,0.0,0.0
1615407370.902,0,1615407370,901999950,,0.0013275786711844958,-0.0021490217914953403,-0.7491140711216872,0.6624362065042214,-1.0,0.0,0.0,0.0,0.0,0.0,0.0,0.0,0.0,-3.1803558189243505e-05,-1.46304012509981e-05,0.00040214610696224926,-1.0,0.0,0.0,0.0,0.0,0.0,0.0,0.0,0.0,0.0,0.0,0.0,-1.0,0.0,0.0,0.0,0.0,0.0,0.0,0.0,0.0
1615407370.922,0,1615407370,921999931,,0.0013254391819878509,-0.0021502702868036955,-0.7491141175575592,0.662436154225166,-1.0,0.0,0.0,0.0,0.0,0.0,0.0,0.0,0.0,-3.744251690729128e-05,-7.060110756523702e-05,0.0001509094460114982,-1.0,0.0,0.0,0.0,0.0,0.0,0.0,0.0,0.0,0.0,0.0,0.0,-1.0,0.0,0.0,0.0,0.0,0.0,0.0,0.0,0.0
1615407370.942,0,1615407370,941999912,,0.0013235707780673163,-0.0021471077766118643,-0.7491142437954609,0.6624360254630979,-1.0,0.0,0.0,0.0,0.0,0.0,0.0,0.0,0.0,-0.0001322587245038788,-2.9832144405594045e-05,4.330901571819766e-05,-1.0,0.0,0.0,0.0,0.0,0.0,0.0,0.0,0.0,0.0,0.0,0.0,-1.0,0.0,0.0,0.0,0.0,0.0,0.0,0.0,0.0
1615407370.962,0,1615407370,961999893,,0.0013190902002517416,-0.00215042649058149,-0.7491142750359019,0.6624359883070873,-1.0,0.0,0.0,0.0,0.0,0.0,0.0,0.0,0.0,-9.32262291925843e-05,-0.00022694604426967208,0.0001089518953866349,-1.0,0.0,0.0,0.0,0.0,0.0,0.0,0.0,0.0,0.0,0.0,0.0,-1.0,0.0,0.0,0.0,0.0,0.0,0.0,0.0,0.0
1615407370.982,0,1615407370,982000113,,0.0013125397356676788,-0.0021514040317564737,-0.7491142302433927,0.6624360487979074,-1.0,0.0,0.0,0.0,0.0,0.0,0.0,0.0,0.0,-0.0001789864179240504,-0.00033487861069087774,-9.668810615467798e-05,-1.0,0.0,0.0,0.0,0.0,0.0,0.0,0.0,0.0,0.0,0.0,0.0,-1.0,0.0,0.0,0.0,0.0,0.0,0.0,0.0,0.0
1615407371.002,0,1615407371,2000093,,0.0013207672474389695,-0.0021498568432366323,-0.7491142205211746,0.6624360484623287,-1.0,0.0,0.0,0.0,0.0,0.0,0.0,0.0,0.0,-0.00022510935335721697,1.2893497678874443e-05,2.964568972036202e-05,-1.0,0.0,0.0,0.0,0.0,0.0,0.0,0.0,0.0,0.0,0.0,0.0,-1.0,0.0,0.0,0.0,0.0,0.0,0.0,0.0,0.0
1615407371.022,0,1615407371,22000074,,0.0013212393336561477,-0.0021446254685922555,-0.749114144036042,0.6624361509710734,-1.0,0.0,0.0,0.0,0.0,0.0,0.0,0.0,0.0,-0.00026548818844276755,0.00011842968599681416,0.00011018685568045335,-1.0,0.0,0.0,0.0,0.0,0.0,0.0,0.0,0.0,0.0,0.0,0.0,-1.0,0.0,0.0,0.0,0.0,0.0,0.0,0.0,0.0
1615407371.042,0,1615407371,42000055,,0.001314959127880578,-0.002141193369277934,-0.7491141100656471,0.6624362129850699,-1.0,0.0,0.0,0.0,0.0,0.0,0.0,0.0,0.0,-0.0004068554516514808,-2.970423233464287e-05,-0.00013171058371634284,-1.0,0.0,0.0,0.0,0.0,0.0,0.0,0.0,0.0,0.0,0.0,0.0,-1.0,0.0,0.0,0.0,0.0,0.0,0.0,0.0,0.0
1615407371.062,0,1615407371,62000036,,0.001313090938968335,-0.002138030889260083,-0.7491142307534324,0.6624360904259337,-1.0,0.0,0.0,0.0,0.0,0.0,0.0,0.0,0.0,-0.0003847512457069344,-1.0743290354044534e-05,9.544046417828597e-05,-1.0,0.0,0.0,0.0,0.0,0.0,0.0,0.0,0.0,0.0,0.0,0.0,-1.0,0.0,0.0,0.0,0.0,0.0,0.0,0.0,0.0
1615407371.082,0,1615407371,82000017,,0.0013065406614486965,-0.0021390083962581547,-0.7491143210239178,0.6624359981397866,-1.0,0.0,0.0,0.0,0.0,0.0,0.0,0.0,0.0,-0.00036013046713465887,-0.00019303921746934043,0.00015332586995160723,-1.0,0.0,0.0,0.0,0.0,0.0,0.0,0.0,0.0,0.0,0.0,0.0,-1.0,0.0,0.0,0.0,0.0,0.0,0.0,0.0,0.0
1615407371.102,0,1615407371,101999998,,0.0013028726339187017,-0.002129094185472607,-0.7491142109992285,0.6624361617241715,-1.0,0.0,0.0,0.0,0.0,0.0,0.0,0.0,0.0,-0.0006040858290558188,-7.777532483183066e-06,-0.00013731921875940838,-1.0,0.0,0.0,0.0,0.0,0.0,0.0,0.0,0.0,0.0,0.0,0.0,-1.0,0.0,0.0,0.0,0.0,0.0,0.0,0.0,0.0
1615407371.122,0,1615407371,121999979,,0.001307486132444506,-0.0021285435750171625,-0.7491142397955225,0.6624361218395622,-1.0,0.0,0.0,0.0,0.0,0.0,0.0,0.0,0.0,-0.0003116445097489025,0.00014766036645139514,-0.0002481190600496628,-1.0,0.0,0.0,0.0,0.0,0.0,0.0,0.0,0.0,0.0,0.0,0.0,-1.0,0.0,0.0,0.0,0.0,0.0,0.0,0.0,0.0
1615407371.142,0,1615407371,141999960,,0.0013032778772177533,-0.002127451934953271,-0.7491140887078975,0.662436304496044,-1.0,0.0,0.0,0.0,0.0,0.0,0.0,0.0,0.0,-0.0003008619880729356,-9.202747335532391e-06,0.00013044806519590572,-1.0,0.0,0.0,0.0,0.0,0.0,0.0,0.0,0.0,0.0,0.0,0.0,-1.0,0.0,0.0,0.0,0.0,0.0,0.0,0.0,0.0
1615407371.162,0,1615407371,161999941,,0.0012964584215974782,-0.002132841245314843,-0.7491140604348754,0.662436332520007,-1.0,0.0,0.0,0.0,0.0,0.0,0.0,0.0,0.0,-0.00020378510835587294,-0.00027298397717627086,0.00018883612264763375,-1.0,0.0,0.0,0.0,0.0,0.0,0.0,0.0,0.0,0.0,0.0,0.0,-1.0,0.0,0.0,0.0,0.0,0.0,0.0,0.0,0.0
1615407371.182,0,1615407371,181999922,,0.0012963908122862226,-0.0021364309806747683,-0.7491139208492947,0.6624364789346396,-1.0,0.0,0.0,0.0,0.0,0.0,0.0,0.0,0.0,-8.285733944136824e-05,-0.0002400435404753676,-0.00011275495597658965,-1.0,0.0,0.0,0.0,0.0,0.0,0.0,0.0,0.0,0.0,0.0,0.0,-1.0,0.0,0.0,0.0,0.0,0.0,0.0,0.0,0.0
1615407371.202,0,1615407371,201999903,,0.001294523354987033,-0.002133268950097646,-0.7491137436467554,0.6624366931657796,-1.0,0.0,0.0,0.0,0.0,0.0,0.0,0.0,0.0,-0.00018463961954596263,-0.0001825740696945647,-9.576969471981993e-05,-1.0,0.0,0.0,0.0,0.0,0.0,0.0,0.0,0.0,0.0,0.0,0.0,-1.0,0.0,0.0,0.0,0.0,0.0,0.0,0.0,0.0
1615407371.222,0,1615407371,221999884,,0.0012970680492589005,-0.002130377933784298,-0.749113792911624,0.6624366417808538,-1.0,0.0,0.0,0.0,0.0,0.0,0.0,0.0,0.0,-0.00017152213902036582,-5.612736513686592e-05,-0.00018584467582158362,-1.0,0.0,0.0,0.0,0.0,0.0,0.0,0.0,0.0,0.0,0.0,0.0,-1.0,0.0,0.0,0.0,0.0,0.0,0.0,0.0,0.0
1615407371.242,0,1615407371,242000103,,0.001303753711135393,-0.0021321691844535294,-0.7491136275062605,0.6624368099413266,-1.0,0.0,0.0,0.0,0.0,0.0,0.0,0.0,0.0,7.460423931635897e-05,8.337136696629454e-05,-0.00034729685910016544,-1.0,0.0,0.0,0.0,0.0,0.0,0.0,0.0,0.0,0.0,0.0,0.0,-1.0,0.0,0.0,0.0,0.0,0.0,0.0,0.0,0.0
1615407371.262,0,1615407371,262000084,,0.0013150026629283713,-0.002127477963935929,-0.7491136276568379,0.6624368026191797,-1.0,0.0,0.0,0.0,0.0,0.0,0.0,0.0,0.0,-8.00534982856444e-05,0.000389787824468908,-0.0003508396351738088,-1.0,0.0,0.0,0.0,0.0,0.0,0.0,0.0,0.0,0.0,0.0,0.0,-1.0,0.0,0.0,0.0,0.0,0.0,0.0,0.0,0.0
1615407371.282,0,1615407371,282000065,,0.001306384176346468,-0.002126114517598428,-0.7491133852730218,0.6624370981476168,-1.0,0.0,0.0,0.0,0.0,0.0,0.0,0.0,0.0,-0.0002952888149691102,8.234058055909264e-05,8.68380905819854e-05,-1.0,0.0,0.0,0.0,0.0,0.0,0.0,0.0,0.0,0.0,0.0,0.0,-1.0,0.0,0.0,0.0,0.0,0.0,0.0,0.0,0.0
1615407371.302,0,1615407371,302000046,,0.001308388468391777,-0.0021320433959611126,-0.7491135893263956,0.662436844383748,-1.0,0.0,0.0,0.0,0.0,0.0,0.0,0.0,0.0,2.721315751050762e-05,-4.074459589415436e-05,0.00014777508639794094,-1.0,0.0,0.0,0.0,0.0,0.0,0.0,0.0,0.0,0.0,0.0,0.0,-1.0,0.0,0.0,0.0,0.0,0.0,0.0,0.0,0.0
1615407371.322,0,1615407371,322000027,,0.0013130040119009652,-0.002131491397004705,-0.7491134774151175,0.6624369635821356,-1.0,0.0,0.0,0.0,0.0,0.0,0.0,0.0,0.0,0.0001364370058707022,0.00013863269726843884,-4.973107340847533e-05,-1.0,0.0,0.0,0.0,0.0,0.0,0.0,0.0,0.0,0.0,0.0,0.0,-1.0,0.0,0.0,0.0,0.0,0.0,0.0,0.0,0.0
1615407371.342,0,1615407371,342000008,,0.001313209855281177,-0.0021306675089780725,-0.7491136769027448,0.6624367402349394,-1.0,0.0,0.0,0.0,0.0,0.0,0.0,0.0,0.0,4.922764793537936e-05,0.00012009660841143742,8.192004168109391e-05,-1.0,0.0,0.0,0.0,0.0,0.0,0.0,0.0,0.0,0.0,0.0,0.0,-1.0,0.0,0.0,0.0,0.0,0.0,0.0,0.0,0.0
1615407371.362,0,1615407371,361999989,,0.0013116161905987488,-0.0021230920225819064,-0.7491137725249881,0.6624366595808331,-1.0,0.0,0.0,0.0,0.0,0.0,0.0,0.0,0.0,-0.00017660194630625292,0.000220428509278637,6.59408877467432e-05,-1.0,0.0,0.0,0.0,0.0,0.0,0.0,0.0,0.0,0.0,0.0,0.0,-1.0,0.0,0.0,0.0,0.0,0.0,0.0,0.0,0.0
1615407371.382,0,1615407371,381999969,,0.0013074107997989848,-0.0021219974512154452,-0.7491138641409407,0.662436567797737,-1.0,0.0,0.0,0.0,0.0,0.0,0.0,0.0,0.0,-0.00023365059401693722,6.114995621067269e-05,0.00013409583326489874,-1.0,0.0,0.0,0.0,0.0,0.0,0.0,0.0,0.0,0.0,0.0,0.0,-1.0,0.0,0.0,0.0,0.0,0.0,0.0,0.0,0.0
1615407371.402,0,1615407371,401999950,,0.0013143687227566048,-0.0021193740367645634,-0.7491139054052326,0.6624365157636414,-1.0,0.0,0.0,0.0,0.0,0.0,0.0,0.0,0.0,-3.3597034894539715e-05,0.00025027971812567563,5.381788376128708e-05,-1.0,0.0,0.0,0.0,0.0,0.0,0.0,0.0,0.0,0.0,0.0,0.0,-1.0,0.0,0.0,0.0,0.0,0.0,0.0,0.0,0.0
1615407371.422,0,1615407371,421999931,,0.0013080921961206935,-0.0021159378582105166,-0.7491138767419813,0.6624365715858285,-1.0,0.0,0.0,0.0,0.0,0.0,0.0,0.0,0.0,-0.00025473381331264704,8.198710050146697e-05,0.0001487709495469317,-1.0,0.0,0.0,0.0,0.0,0.0,0.0,0.0,0.0,0.0,0.0,0.0,-1.0,0.0,0.0,0.0,0.0,0.0,0.0,0.0,0.0
1615407371.442,0,1615407371,441999912,,0.0013015442887134283,-0.0021169131652902283,-0.749113828967591,0.6624366353928729,-1.0,0.0,0.0,0.0,0.0,0.0,0.0,0.0,0.0,-0.00028495029172656545,-0.00014332059875751975,0.0001759635180371373,-1.0,0.0,0.0,0.0,0.0,0.0,0.0,0.0,0.0,0.0,0.0,0.0,-1.0,0.0,0.0,0.0,0.0,0.0,0.0,0.0,0.0
1615407371.462,0,1615407371,461999893,,0.0013064307431393284,-0.002111948843816458,-0.7491138217078819,0.6624366498292544,-1.0,0.0,0.0,0.0,0.0,0.0,0.0,0.0,0.0,-0.0002147760507039791,0.00016247132830505022,8.256687308722134e-05,-1.0,0.0,0.0,0.0,0.0,0.0,0.0,0.0,0.0,0.0,0.0,0.0,-1.0,0.0,0.0,0.0,0.0,0.0,0.0,0.0,0.0
1615407371.482,0,1615407371,482000113,,0.001304564828610021,-0.002108784019375931,-0.7491135616528046,0.6624369576710053,-1.0,0.0,0.0,0.0,0.0,0.0,0.0,0.0,0.0,-0.0002598526460556937,9.175369092991375e-05,0.000483791152429513,-1.0,0.0,0.0,0.0,0.0,0.0,0.0,0.0,0.0,0.0,0.0,0.0,-1.0,0.0,0.0,0.0,0.0,0.0,0.0,0.0,0.0
1615407371.502,0,1615407371,502000093,,0.001309180642585299,-0.0021082308439721465,-0.749113502223441,0.662437017530938,-1.0,0.0,0.0,0.0,0.0,0.0,0.0,0.0,0.0,-9.593137608536679e-05,0.00018159319912381148,0.00031956845101547724,-1.0,0.0,0.0,0.0,0.0,0.0,0.0,0.0,0.0,0.0,0.0,0.0,-1.0,0.0,0.0,0.0,0.0,0.0,0.0,0.0,0.0
1615407371.522,0,1615407371,522000074,,0.001318790590783778,-0.002109891951354121,-0.7491134852369065,0.6624370123895149,-1.0,0.0,0.0,0.0,0.0,0.0,0.0,0.0,0.0,-9.198010987357836e-05,0.0002506749395189003,0.000200569641222674,-1.0,0.0,0.0,0.0,0.0,0.0,0.0,0.0,0.0,0.0,0.0,0.0,-1.0,0.0,0.0,0.0,0.0,0.0,0.0,0.0,0.0
1615407371.542,0,1615407371,542000055,,0.0013184547794390306,-0.0021178901427483707,-0.749113608030214,0.6624368486748701,-1.0,0.0,0.0,0.0,0.0,0.0,0.0,0.0,0.0,0.00014935516953464974,-4.511992650829677e-05,0.0002462694986814334,-1.0,0.0,0.0,0.0,0.0,0.0,0.0,0.0,0.0,0.0,0.0,0.0,-1.0,0.0,0.0,0.0,0.0,0.0,0.0,0.0,0.0
1615407371.562,0,1615407371,562000036,,0.0013165901679584122,-0.002114724742179517,-0.7491134914190012,0.6624369943652215,-1.0,0.0,0.0,0.0,0.0,0.0,0.0,0.0,0.0,-1.9810287729928633e-05,7.052584972184637e-07,1.5032704686517609e-05,-1.0,0.0,0.0,0.0,0.0,0.0,0.0,0.0,0.0,0.0,0.0,0.0,-1.0,0.0,0.0,0.0,0.0,0.0,0.0,0.0,0.0
1615407371.582,0,1615407371,582000017,,0.0013170671107806701,-0.002109488861827237,-0.7491136023761056,0.6624368846358584,-1.0,0.0,0.0,0.0,0.0,0.0,0.0,0.0,0.0,-0.00012067367062601783,0.00014213749081817202,0.00017055777225282977,-1.0,0.0,0.0,0.0,0.0,0.0,0.0,0.0,0.0,0.0,0.0,0.0,-1.0,0.0,0.0,0.0,0.0,0.0,0.0,0.0,0.0
1615407371.602,0,1615407371,601999998,,0.0013214138020923266,-0.002113346899175828,-0.7491136176314004,0.6624368464311473,-1.0,0.0,0.0,0.0,0.0,0.0,0.0,0.0,0.0,0.00011804670805091482,0.00013368311859210765,6.896401766945756e-05,-1.0,0.0,0.0,0.0,0.0,0.0,0.0,0.0,0.0,0.0,0.0,0.0,-1.0,0.0,0.0,0.0,0.0,0.0,0.0,0.0,0.0
1615407371.622,0,1615407371,621999979,,0.001319278824258452,-0.0021145938309567896,-0.7491134764496032,0.6624370063620417,-1.0,0.0,0.0,0.0,0.0,0.0,0.0,0.0,0.0,6.09406565871928e-05,1.675944796115372e-05,0.00023742226700678985,-1.0,0.0,0.0,0.0,0.0,0.0,0.0,0.0,0.0,0.0,0.0,0.0,-1.0,0.0,0.0,0.0,0.0,0.0,0.0,0.0,0.0
1615407371.642,0,1615407371,641999960,,0.0013150745809074168,-0.0021134989961800223,-0.74911351836982,0.6624369708103777,-1.0,0.0,0.0,0.0,0.0,0.0,0.0,0.0,0.0,-9.915351844695319e-05,-0.00010505930360071192,6.683494901202816e-05,-1.0,0.0,0.0,0.0,0.0,0.0,0.0,0.0,0.0,0.0,0.0,0.0,-1.0,0.0,0.0,0.0,0.0,0.0,0.0,0.0,0.0
1615407371.662,0,1615407371,661999941,,0.0013108704939465401,-0.0021124042076887868,-0.7491135271862077,0.6624369726650606,-1.0,0.0,0.0,0.0,0.0,0.0,0.0,0.0,0.0,-0.0001828109356260135,-0.00015110473310233488,2.2267120362187324e-05,-1.0,0.0,0.0,0.0,0.0,0.0,0.0,0.0,0.0,0.0,0.0,0.0,-1.0,0.0,0.0,0.0,0.0,0.0,0.0,0.0,0.0
1615407371.682,0,1615407371,681999922,,0.0012975741635098301,-0.00211517807929985,-0.7491136292733186,0.6624368745472583,-1.0,0.0,0.0,0.0,0.0,0.0,0.0,0.0,0.0,-0.000352571151172584,-0.0005437757509402154,9.666171414106684e-05,-1.0,0.0,0.0,0.0,0.0,0.0,0.0,0.0,0.0,0.0,0.0,0.0,-1.0,0.0,0.0,0.0,0.0,0.0,0.0,0.0,0.0
1615407371.702,0,1615407371,701999903,,0.0013001222574457413,-0.0021122836487670184,-0.7491135488352532,0.6624369697498439,-1.0,0.0,0.0,0.0,0.0,0.0,0.0,0.0,0.0,-0.000281710896996156,-0.00022755821271374166,6.323304292639398e-05,-1.0,0.0,0.0,0.0,0.0,0.0,0.0,0.0,0.0,0.0,0.0,0.0,-1.0,0.0,0.0,0.0,0.0,0.0,0.0,0.0,0.0
1615407371.722,0,1615407371,721999884,,0.001300871528366344,-0.0021026362217300043,-0.749113673317637,0.6624368582006457,-1.0,0.0,0.0,0.0,0.0,0.0,0.0,0.0,0.0,-0.00043885742972602746,8.354077191469208e-05,-7.117823112102522e-05,-1.0,0.0,0.0,0.0,0.0,0.0,0.0,0.0,0.0,0.0,0.0,0.0,-1.0,0.0,0.0,0.0,0.0,0.0,0.0,0.0,0.0
1615407371.742,0,1615407371,742000103,,0.001296937748989666,-0.0020971298442756824,-0.749113541156168,0.662437032823013,-1.0,0.0,0.0,0.0,0.0,0.0,0.0,0.0,0.0,-0.0005182092475651578,0.00011902184148796141,-0.00016946632227140342,-1.0,0.0,0.0,0.0,0.0,0.0,0.0,0.0,0.0,0.0,0.0,0.0,-1.0,0.0,0.0,0.0,0.0,0.0,0.0,0.0,0.0
1615407371.762,0,1615407371,762000084,,0.0013018252499644948,-0.0020921651648480584,-0.7491133932271165,0.6624372062193498,-1.0,0.0,0.0,0.0,0.0,0.0,0.0,0.0,0.0,-0.00035655049989827666,0.00028952112603478677,0.0001507753723932713,-1.0,0.0,0.0,0.0,0.0,0.0,0.0,0.0,0.0,0.0,0.0,0.0,-1.0,0.0,0.0,0.0,0.0,0.0,0.0,0.0,0.0
1615407371.782,0,1615407371,782000065,,0.001308061472195216,-0.002089166219645953,-0.7491135771931327,0.6624369953622761,-1.0,0.0,0.0,0.0,0.0,0.0,0.0,0.0,0.0,-0.00044282480852955296,0.0003316305875473929,-2.387644277998945e-05,-1.0,0.0,0.0,0.0,0.0,0.0,0.0,0.0,0.0,0.0,0.0,0.0,-1.0,0.0,0.0,0.0,0.0,0.0,0.0,0.0,0.0
1615407371.802,0,1615407371,802000046,,0.001312679162137839,-0.0020886132106459946,-0.7491134515855405,0.6624371300145183,-1.0,0.0,0.0,0.0,0.0,0.0,0.0,0.0,0.0,-0.00018205763433914356,0.0003491520060822263,0.00020029549690904572,-1.0,0.0,0.0,0.0,0.0,0.0,0.0,0.0,0.0,0.0,0.0,0.0,-1.0,0.0,0.0,0.0,0.0,0.0,0.0,0.0,0.0
1615407371.822,0,1615407371,822000027,,0.0013108158726278156,-0.0020854475132888266,-0.7491135941185821,0.6624369824950579,-1.0,0.0,0.0,0.0,0.0,0.0,0.0,0.0,0.0,-0.00020335839955058142,0.0002695193422819843,0.00022476456544738338,-1.0,0.0,0.0,0.0,0.0,0.0,0.0,0.0,0.0,0.0,0.0,0.0,-1.0,0.0,0.0,0.0,0.0,0.0,0.0,0.0,0.0
1615407371.842,0,1615407371,842000008,,0.001306881459352603,-0.002079941766430768,-0.7491135280110711,0.6624370823360552,-1.0,0.0,0.0,0.0,0.0,0.0,0.0,0.0,0.0,-0.00036607319512794436,0.00021725358054100233,0.00025091218092900013,-1.0,0.0,0.0,0.0,0.0,0.0,0.0,0.0,0.0,0.0,0.0,0.0,-1.0,0.0,0.0,0.0,0.0,0.0,0.0,0.0,0.0
1615407371.862,0,1615407371,861999989,,0.0013021348377405726,-0.0020876689794920088,-0.7491136973415206,0.6624368758896301,-1.0,0.0,0.0,0.0,0.0,0.0,0.0,0.0,0.0,-0.0001655946805166721,-0.00015579004300540788,0.00026806032186680597,-1.0,0.0,0.0,0.0,0.0,0.0,0.0,0.0,0.0,0.0,0.0,0.0,-1.0,0.0,0.0,0.0,0.0,0.0,0.0,0.0,0.0
1615407371.882,0,1615407371,881999969,,0.001304681103802228,-0.0020847744366396708,-0.7491136693183464,0.6624369116853082,-1.0,0.0,0.0,0.0,0.0,0.0,0.0,0.0,0.0,-0.00012520903372798288,1.8074141329902957e-05,0.0002454128210635924,-1.0,0.0,0.0,0.0,0.0,0.0,0.0,0.0,0.0,0.0,0.0,0.0,-1.0,0.0,0.0,0.0,0.0,0.0,0.0,0.0,0.0
1615407371.902,0,1615407371,901999950,,0.0013028166692684489,-0.0020816085433076727,-0.7491137097980434,0.6624368795343537,-1.0,0.0,0.0,0.0,0.0,0.0,0.0,0.0,0.0,-0.00016846273884815237,1.8414107088372204e-05,0.00023052538718179526,-1.0,0.0,0.0,0.0,0.0,0.0,0.0,0.0,0.0,0.0,0.0,0.0,-1.0,0.0,0.0,0.0,0.0,0.0,0.0,0.0,0.0
1615407371.922,0,1615407371,921999931,,0.001307704245600225,-0.0020766440835670885,-0.749113757678518,0.6624368313399602,-1.0,0.0,0.0,0.0,0.0,0.0,0.0,0.0,0.0,-9.320405777985192e-05,0.00027985876487564683,0.0003546233824763527,-1.0,0.0,0.0,0.0,0.0,0.0,0.0,0.0,0.0,0.0,0.0,0.0,-1.0,0.0,0.0,0.0,0.0,0.0,0.0,0.0,0.0
1615407371.942,0,1615407371,941999912,,0.0013032276896973959,-0.002079959977396701,-0.7491138494310988,0.6624367260007572,-1.0,0.0,0.0,0.0,0.0,0.0,0.0,0.0,0.0,-7.770974841969349e-05,-1.3473378883024169e-05,0.00032594138516030713,-1.0,0.0,0.0,0.0,0.0,0.0,0.0,0.0,0.0,0.0,0.0,0.0,-1.0,0.0,0.0,0.0,0.0,0.0,0.0,0.0,0.0
1615407371.962,0,1615407371,961999893,,0.0013016334964343615,-0.002072384122052172,-0.7491138205748479,0.6624367855109242,-1.0,0.0,0.0,0.0,0.0,0.0,0.0,0.0,0.0,-0.00025990436314157826,0.00012267841863745834,0.00042974949709079777,-1.0,0.0,0.0,0.0,0.0,0.0,0.0,0.0,0.0,0.0,0.0,0.0,-1.0,0.0,0.0,0.0,0.0,0.0,0.0,0.0,0.0
1615407371.982,0,1615407371,982000113,,0.0013062485241754035,-0.0020718314482921036,-0.7491135488607491,0.6624370854220777,-1.0,0.0,0.0,0.0,0.0,0.0,0.0,0.0,0.0,-6.209158852282868e-05,0.0001781270760243789,0.00038298289616687457,-1.0,0.0,0.0,0.0,0.0,0.0,0.0,0.0,0.0,0.0,0.0,0.0,-1.0,0.0,0.0,0.0,0.0,0.0,0.0,0.0,0.0
1615407372.002,0,1615407372,2000093,,0.0013085223346830457,-0.002073348758442836,-0.7491134163609414,0.6624372260239187,-1.0,0.0,0.0,0.0,0.0,0.0,0.0,0.0,0.0,4.39319442092832e-05,0.00013699021183724973,-6.394523473372735e-05,-1.0,0.0,0.0,0.0,0.0,0.0,0.0,0.0,0.0,0.0,0.0,0.0,-1.0,0.0,0.0,0.0,0.0,0.0,0.0,0.0,0.0
1615407372.022,0,1615407372,22000074,,0.0013045863719477516,-0.0020678426649865457,-0.7491134218673398,0.6624372447706395,-1.0,0.0,0.0,0.0,0.0,0.0,0.0,0.0,0.0,-0.00018012298332420535,0.00012013555138564041,0.00016142308617589227,-1.0,0.0,0.0,0.0,0.0,0.0,0.0,0.0,0.0,0.0,0.0,0.0,-1.0,0.0,0.0,0.0,0.0,0.0,0.0,0.0,0.0
1615407372.042,0,1615407372,42000055,,0.0013180275950699632,-0.0020713070419816305,-0.7491133175864587,0.6624373252655725,-1.0,0.0,0.0,0.0,0.0,0.0,0.0,0.0,0.0,-4.363510068392917e-05,0.0001889399032283863,0.0001080513141931023,-1.0,0.0,0.0,0.0,0.0,0.0,0.0,0.0,0.0,0.0,0.0,0.0,-1.0,0.0,0.0,0.0,0.0,0.0,0.0,0.0,0.0
1615407372.062,0,1615407372,62000036,,0.0013158910372071074,-0.0020725532615789915,-0.7491132425375098,0.6624374104839599,-1.0,0.0,0.0,0.0,0.0,0.0,0.0,0.0,0.0,-5.644430505089894e-05,2.8105463188154636e-05,-4.181276226661564e-05,-1.0,0.0,0.0,0.0,0.0,0.0,0.0,0.0,0.0,0.0,0.0,0.0,-1.0,0.0,0.0,0.0,0.0,0.0,0.0,0.0,0.0
1615407372.082,0,1615407372,82000017,,0.0013178954698969344,-0.0020784809469750485,-0.7491134496445887,0.6624371537210665,-1.0,0.0,0.0,0.0,0.0,0.0,0.0,0.0,0.0,0.00016251683331404453,-6.379968330091882e-05,0.0003134473331065344,-1.0,0.0,0.0,0.0,0.0,0.0,0.0,0.0,0.0,0.0,0.0,0.0,-1.0,0.0,0.0,0.0,0.0,0.0,0.0,0.0,0.0
1615407372.102,0,1615407372,101999998,,0.001318099538494507,-0.0020776569675794985,-0.7491133346566966,0.6624372859332842,-1.0,0.0,0.0,0.0,0.0,0.0,0.0,0.0,0.0,0.00011142548175478932,-3.5346644619058175e-05,0.00010539894092973264,-1.0,0.0,0.0,0.0,0.0,0.0,0.0,0.0,0.0,0.0,0.0,0.0,-1.0,0.0,0.0,0.0,0.0,0.0,0.0,0.0,0.0
1615407372.122,0,1615407372,121999979,,0.0013229859738015663,-0.0020726921399497594,-0.7491134568361415,0.6624371535794265,-1.0,0.0,0.0,0.0,0.0,0.0,0.0,0.0,0.0,1.1395356440144553e-05,0.00022080702368101145,1.3642963950870611e-05,-1.0,0.0,0.0,0.0,0.0,0.0,0.0,0.0,0.0,0.0,0.0,0.0,-1.0,0.0,0.0,0.0,0.0,0.0,0.0,0.0,0.0
1615407372.142,0,1615407372,141999960,,0.0013164379666067041,-0.0020736669502182887,-0.7491135689445185,0.6624370367964534,-1.0,0.0,0.0,0.0,0.0,0.0,0.0,0.0,0.0,-0.00013411195889604288,-4.987733889987178e-05,-3.642107350755751e-05,-1.0,0.0,0.0,0.0,0.0,0.0,0.0,0.0,0.0,0.0,0.0,0.0,-1.0,0.0,0.0,0.0,0.0,0.0,0.0,0.0,0.0
1615407372.162,0,1615407372,161999941,,0.0013231228032996997,-0.0020754542588849534,-0.7491135995865198,0.6624369832294947,-1.0,0.0,0.0,0.0,0.0,0.0,0.0,0.0,0.0,0.00010914964032825874,9.876519837052634e-05,-0.00018065045198651972,-1.0,0.0,0.0,0.0,0.0,0.0,0.0,0.0,0.0,0.0,0.0,0.0,-1.0,0.0,0.0,0.0,0.0,0.0,0.0,0.0,0.0
1615407372.182,0,1615407372,181999922,,0.0013189163728971537,-0.0020743584556090267,-0.749113536559085,0.6624370663244468,-1.0,0.0,0.0,0.0,0.0,0.0,0.0,0.0,0.0,-4.6221168391368134e-05,-2.9901680898161893e-05,-0.0004687694681706842,-1.0,0.0,0.0,0.0,0.0,0.0,0.0,0.0,0.0,0.0,0.0,0.0,-1.0,0.0,0.0,0.0,0.0,0.0,0.0,0.0,0.0
1615407372.202,0,1615407372,201999903,,0.0013167807568069355,-0.0020756031836123064,-0.7491135801270032,0.6624370174055544,-1.0,0.0,0.0,0.0,0.0,0.0,0.0,0.0,0.0,-4.69107143735565e-05,-9.168412400568435e-05,-0.000667916660905513,-1.0,0.0,0.0,0.0,0.0,0.0,0.0,0.0,0.0,0.0,0.0,0.0,-1.0,0.0,0.0,0.0,0.0,0.0,0.0,0.0,0.0
1615407372.222,0,1615407372,221999884,,0.001317256393575348,-0.0020703678146453447,-0.749113431620384,0.6624372007810537,-1.0,0.0,0.0,0.0,0.0,0.0,0.0,0.0,0.0,-0.00014859062545823814,8.150782006014694e-05,-0.000662349026429302,-1.0,0.0,0.0,0.0,0.0,0.0,0.0,0.0,0.0,0.0,0.0,0.0,-1.0,0.0,0.0,0.0,0.0,0.0,0.0,0.0,0.0
1615407372.242,0,1615407372,242000103,,0.001328625229653578,-0.0020680150035791442,-0.7491132995277979,0.6624373348019569,-1.0,0.0,0.0,0.0,0.0,0.0,0.0,0.0,0.0,0.00011220184646403461,0.00042252818037815916,-0.0007735683179826656,-1.0,0.0,0.0,0.0,0.0,0.0,0.0,0.0,0.0,0.0,0.0,0.0,-1.0,0.0,0.0,0.0,0.0,0.0,0.0,0.0,0.0
1615407372.262,0,1615407372,262000084,,0.0013285609384329844,-0.0020716011969131986,-0.7491133256068189,0.6624372942344098,-1.0,0.0,0.0,0.0,0.0,0.0,0.0,0.0,0.0,0.00014819307314464645,0.00020392857423556923,-0.00030182835031768434,-1.0,0.0,0.0,0.0,0.0,0.0,0.0,0.0,0.0,0.0,0.0,0.0,-1.0,0.0,0.0,0.0,0.0,0.0,0.0,0.0,0.0
1615407372.282,0,1615407372,282000065,,0.0013202160662686081,-0.0020658233131251,-0.7491132727255426,0.6624373887621412,-1.0,0.0,0.0,0.0,0.0,0.0,0.0,0.0,0.0,-0.00023668607891869008,4.9269150203201526e-05,-3.986381674285409e-05,-1.0,0.0,0.0,0.0,0.0,0.0,0.0,0.0,0.0,0.0,0.0,0.0,-1.0,0.0,0.0,0.0,0.0,0.0,0.0,0.0,0.0
1615407372.302,0,1615407372,302000046,,0.0013319236799831456,-0.002075951601299218,-0.7491133464612151,0.6624372502795562,-1.0,0.0,0.0,0.0,0.0,0.0,0.0,0.0,0.0,4.4270423783485986e-05,-2.8468157330842282e-05,6.461090560931232e-05,-1.0,0.0,0.0,0.0,0.0,0.0,0.0,0.0,0.0,0.0,0.0,0.0,-1.0,0.0,0.0,0.0,0.0,0.0,0.0,0.0,0.0
1615407372.322,0,1615407372,322000027,,0.0013339284754400056,-0.002081878616369154,-0.7491132033039053,0.6624373895335399,-1.0,0.0,0.0,0.0,0.0,0.0,0.0,0.0,0.0,0.00022859448667839505,-7.947429858909618e-05,-0.00010197026886509436,-1.0,0.0,0.0,0.0,0.0,0.0,0.0,0.0,0.0,0.0,0.0,0.0,-1.0,0.0,0.0,0.0,0.0,0.0,0.0,0.0,0.0
1615407372.342,0,1615407372,342000008,,0.0013338633689511763,-0.0020854641393249973,-0.7491132266135118,0.6624373520269897,-1.0,0.0,0.0,0.0,0.0,0.0,0.0,0.0,0.0,0.0002458962585614872,-0.00015806574103268735,8.233613798080874e-05,-1.0,0.0,0.0,0.0,0.0,0.0,0.0,0.0,0.0,0.0,0.0,0.0,-1.0,0.0,0.0,0.0,0.0,0.0,0.0,0.0,0.0
1615407372.362,0,1615407372,361999989,,0.0013322696748468772,-0.0020778867972712357,-0.7491133245636716,0.6624372682791437,-1.0,0.0,0.0,0.0,0.0,0.0,0.0,0.0,0.0,-4.761538599958465e-05,7.296709817361513e-05,0.00025721629282967565,-1.0,0.0,0.0,0.0,0.0,0.0,0.0,0.0,0.0,0.0,0.0,0.0,-1.0,0.0,0.0,0.0,0.0,0.0,0.0,0.0,0.0
1615407372.382,0,1615407372,381999969,,0.0013345452972105415,-0.0020794022654881733,-0.7491134374361189,0.6624371313020656,-1.0,0.0,0.0,0.0,0.0,0.0,0.0,0.0,0.0,8.841769856688666e-05,9.305095349160976e-05,0.00016833998433920172,-1.0,0.0,0.0,0.0,0.0,0.0,0.0,0.0,0.0,0.0,0.0,0.0,-1.0,0.0,0.0,0.0,0.0,0.0,0.0,0.0,0.0
1615407372.402,0,1615407372,401999950,,0.0013329514093864277,-0.002071824400165864,-0.7491134497980202,0.6624371442755187,-1.0,0.0,0.0,0.0,0.0,0.0,0.0,0.0,0.0,-0.00017232687914938062,0.00018011978131255086,0.0002237770700867988,-1.0,0.0,0.0,0.0,0.0,0.0,0.0,0.0,0.0,0.0,0.0,0.0,-1.0,0.0,0.0,0.0,0.0,0.0,0.0,0.0,0.0
1615407372.422,0,1615407372,421999931,,0.001335498940650566,-0.0020689282650339816,-0.7491133802349484,0.6624372268610689,-1.0,0.0,0.0,0.0,0.0,0.0,0.0,0.0,0.0,-0.00014213486465223024,0.00023853901750890152,0.00025001137280121277,-1.0,0.0,0.0,0.0,0.0,0.0,0.0,0.0,0.0,0.0,0.0,0.0,-1.0,0.0,0.0,0.0,0.0,0.0,0.0,0.0,0.0
1615407372.442,0,1615407372,441999912,,0.001342457123107893,-0.002066304008913127,-0.7491133193014843,0.6624372898937135,-1.0,0.0,0.0,0.0,0.0,0.0,0.0,0.0,0.0,2.6848117033439978e-06,0.0004005763206039903,0.00025473969067708874,-1.0,0.0,0.0,0.0,0.0,0.0,0.0,0.0,0.0,0.0,0.0,0.0,-1.0,0.0,0.0,0.0,0.0,0.0,0.0,0.0,0.0
1615407372.462,0,1615407372,461999893,,0.0013491456761300345,-0.002068090414535514,-0.7491135015208701,0.662437064668881,-1.0,0.0,0.0,0.0,0.0,0.0,0.0,0.0,0.0,0.00016508669334046252,0.0003944033885679691,0.00021272929811349273,-1.0,0.0,0.0,0.0,0.0,0.0,0.0,0.0,0.0,0.0,0.0,0.0,-1.0,0.0,0.0,0.0,0.0,0.0,0.0,0.0,0.0
1615407372.482,0,1615407372,482000113,,0.0013470118263113416,-0.002069335702262172,-0.7491136306211126,0.6624369191300756,-1.0,0.0,0.0,0.0,0.0,0.0,0.0,0.0,0.0,9.178026823212739e-05,0.00018547455077228122,0.0001976508156936321,-1.0,0.0,0.0,0.0,0.0,0.0,0.0,0.0,0.0,0.0,0.0,0.0,-1.0,0.0,0.0,0.0,0.0,0.0,0.0,0.0,0.0
1615407372.502,0,1615407372,502000093,,0.0013516300464058043,-0.0020687814451992477,-0.7491137668988502,0.6624367573453067,-1.0,0.0,0.0,0.0,0.0,0.0,0.0,0.0,0.0,0.00015617284397495087,0.0002407697649628044,0.00014177629225198857,-1.0,0.0,0.0,0.0,0.0,0.0,0.0,0.0,0.0,0.0,0.0,0.0,-1.0,0.0,0.0,0.0,0.0,0.0,0.0,0.0,0.0
1615407372.522,0,1615407372,522000074,,0.0013450845300320038,-0.002069755510577469,-0.7491137687791322,0.6624367654993634,-1.0,0.0,0.0,0.0,0.0,0.0,0.0,0.0,0.0,-1.7709978329350233e-05,6.063691941281832e-06,-1.9869472131624878e-05,-1.0,0.0,0.0,0.0,0.0,0.0,0.0,0.0,0.0,0.0,0.0,0.0,-1.0,0.0,0.0,0.0,0.0,0.0,0.0,0.0,0.0
1615407372.542,0,1615407372,542000055,,0.0013479030446862316,-0.0020624488006965023,-0.7491138834331037,0.6624366529035823,-1.0,0.0,0.0,0.0,0.0,0.0,0.0,0.0,0.0,-0.00014067608996090833,0.0002368047131838618,-0.0002384064537525862,-1.0,0.0,0.0,0.0,0.0,0.0,0.0,0.0,0.0,0.0,0.0,0.0,-1.0,0.0,0.0,0.0,0.0,0.0,0.0,0.0,0.0
1615407372.562,0,1615407372,562000036,,0.001357361231103818,-0.0020654780301298057,-0.7491139773644687,0.6624365179307233,-1.0,0.0,0.0,0.0,0.0,0.0,0.0,0.0,0.0,-0.00010885626705465507,0.00017207733212874662,-0.00039424357373377177,-1.0,0.0,0.0,0.0,0.0,0.0,0.0,0.0,0.0,0.0,0.0,0.0,-1.0,0.0,0.0,0.0,0.0,0.0,0.0,0.0,0.0
1615407372.582,0,1615407372,582000017,,0.001353157415633807,-0.002064381633333139,-0.7491140412255841,0.6624364577317242,-1.0,0.0,0.0,0.0,0.0,0.0,0.0,0.0,0.0,-0.0001892136938362809,1.826118078935394e-05,-0.000246483766209284,-1.0,0.0,0.0,0.0,0.0,0.0,0.0,0.0,0.0,0.0,0.0,0.0,-1.0,0.0,0.0,0.0,0.0,0.0,0.0,0.0,0.0
1615407372.602,0,1615407372,601999998,,0.0013486828601854013,-0.0020676957010296484,-0.7491141856102513,0.6624362932437509,-1.0,0.0,0.0,0.0,0.0,0.0,0.0,0.0,0.0,-0.00015082911810774575,-0.0001636463247496988,-0.0004096415437889219,-1.0,0.0,0.0,0.0,0.0,0.0,0.0,0.0,0.0,0.0,0.0,0.0,-1.0,0.0,0.0,0.0,0.0,0.0,0.0,0.0,0.0
1615407372.622,0,1615407372,621999979,,0.001353030294494872,-0.002071550918752751,-0.7491142369095435,0.662436214321987,-1.0,0.0,0.0,0.0,0.0,0.0,0.0,0.0,0.0,0.00012195465170466944,-0.00011085993844966877,-0.00016544835556720562,-1.0,0.0,0.0,0.0,0.0,0.0,0.0,0.0,0.0,0.0,0.0,0.0,-1.0,0.0,0.0,0.0,0.0,0.0,0.0,0.0,0.0
1615407372.642,0,1615407372,641999960,,0.001353237863769123,-0.0020707235718752117,-0.749114345262227,0.6624360939543664,-1.0,0.0,0.0,0.0,0.0,0.0,0.0,0.0,0.0,5.330223779667278e-05,-3.2210480096660525e-05,-4.148651520356208e-05,-1.0,0.0,0.0,0.0,0.0,0.0,0.0,0.0,0.0,0.0,0.0,0.0,-1.0,0.0,0.0,0.0,0.0,0.0,0.0,0.0,0.0
1615407372.662,0,1615407372,661999941,,0.0013555150873228337,-0.0020722377758445086,-0.7491141961355984,0.6624362532029515,-1.0,0.0,0.0,0.0,0.0,0.0,0.0,0.0,0.0,0.00011964082304920983,1.939801109214953e-05,-1.5020627503224676e-05,-1.0,0.0,0.0,0.0,0.0,0.0,0.0,0.0,0.0,0.0,0.0,0.0,-1.0,0.0,0.0,0.0,0.0,0.0,0.0,0.0,0.0
1615407372.682,0,1615407372,681999922,,0.001353923312045203,-0.0020646583554309182,-0.7491141531994686,0.6624363286790539,-1.0,0.0,0.0,0.0,0.0,0.0,0.0,0.0,0.0,-0.00013045950941277862,0.00014439176776870176,0.0001608467416982682,-1.0,0.0,0.0,0.0,0.0,0.0,0.0,0.0,0.0,0.0,0.0,0.0,-1.0,0.0,0.0,0.0,0.0,0.0,0.0,0.0,0.0
1615407372.702,0,1615407372,701999903,,0.0013499913103770143,-0.002059149089688345,-0.7491140703041408,0.6624364475939192,-1.0,0.0,0.0,0.0,0.0,0.0,0.0,0.0,0.0,-0.00029453001778220533,0.00010380274855812291,0.00017496525572671857,-1.0,0.0,0.0,0.0,0.0,0.0,0.0,0.0,0.0,0.0,0.0,0.0,-1.0,0.0,0.0,0.0,0.0,0.0,0.0,0.0,0.0
1615407372.722,0,1615407372,721999884,,0.0013478593588639105,-0.0020603916286488387,-0.7491141083965673,0.6624364049950012,-1.0,0.0,0.0,0.0,0.0,0.0,0.0,0.0,0.0,-0.00021992386238127776,1.993501376211553e-05,1.9593681686994146e-06,-1.0,0.0,0.0,0.0,0.0,0.0,0.0,0.0,0.0,0.0,0.0,0.0,-1.0,0.0,0.0,0.0,0.0,0.0,0.0,0.0,0.0
1615407372.742,0,1615407372,742000103,,0.0013480687070708036,-0.002059563981349926,-0.749114136754215,0.6624363750745841,-1.0,0.0,0.0,0.0,0.0,0.0,0.0,0.0,0.0,-0.00014959513856316589,2.9917881274987032e-05,-0.00013418781255741843,-1.0,0.0,0.0,0.0,0.0,0.0,0.0,0.0,0.0,0.0,0.0,0.0,-1.0,0.0,0.0,0.0,0.0,0.0,0.0,0.0,0.0
1615407372.762,0,1615407372,762000084,,0.001355301006541394,-0.0020525256713744234,-0.7491141551802328,0.6624363613254908,-1.0,0.0,0.0,0.0,0.0,0.0,0.0,0.0,0.0,-0.00012596037487853646,0.0003223402447784815,1.2862792555434315e-05,-1.0,0.0,0.0,0.0,0.0,0.0,0.0,0.0,0.0,0.0,0.0,0.0,-1.0,0.0,0.0,0.0,0.0,0.0,0.0,0.0,0.0
1615407372.782,0,1615407372,782000065,,0.0013508283252655652,-0.002055837830472634,-0.7491142223229804,0.6624362842621824,-1.0,0.0,0.0,0.0,0.0,0.0,0.0,0.0,0.0,-9.920869868584336e-05,1.4586166068402911e-05,-1.3282149652092621e-05,-1.0,0.0,0.0,0.0,0.0,0.0,0.0,0.0,0.0,0.0,0.0,0.0,-1.0,0.0,0.0,0.0,0.0,0.0,0.0,0.0,0.0
1615407372.802,0,1615407372,802000046,,0.001341944822242278,-0.0020588789305424652,-0.7491142532028572,0.6624362579523928,-1.0,0.0,0.0,0.0,0.0,0.0,0.0,0.0,0.0,-0.0002066498351270362,-0.0003099333299737862,-0.0002566645371094445,-1.0,0.0,0.0,0.0,0.0,0.0,0.0,0.0,0.0,0.0,0.0,0.0,-1.0,0.0,0.0,0.0,0.0,0.0,0.0,0.0,0.0
1615407372.822,0,1615407372,822000027,,0.0013515490354117125,-0.0020620724233927448,-0.7491143716508286,0.662436094547021,-1.0,0.0,0.0,0.0,0.0,0.0,0.0,0.0,0.0,-0.00011827092601945344,-0.0001627173827740728,0.00025224690677152595,-1.0,0.0,0.0,0.0,0.0,0.0,0.0,0.0,0.0,0.0,0.0,0.0,-1.0,0.0,0.0,0.0,0.0,0.0,0.0,0.0,0.0
1615407372.842,0,1615407372,842000008,,0.0013494192417123302,-0.00206331312536846,-0.7491145724918763,0.6624358679049394,-1.0,0.0,0.0,0.0,0.0,0.0,0.0,0.0,0.0,-0.00011553094419604104,-0.00018872678968635245,0.00012241523580719727,-1.0,0.0,0.0,0.0,0.0,0.0,0.0,0.0,0.0,0.0,0.0,0.0,-1.0,0.0,0.0,0.0,0.0,0.0,0.0,0.0,0.0
1615407372.862,0,1615407372,861999989,,0.0013522423183884834,-0.002056002308537561,-0.7491147808815406,0.6624356492218858,-1.0,0.0,0.0,0.0,0.0,0.0,0.0,0.0,0.0,-0.00020611151069550656,0.00013295081783378892,0.00027471082052004216,-1.0,0.0,0.0,0.0,0.0,0.0,0.0,0.0,0.0,0.0,0.0,0.0,-1.0,0.0,0.0,0.0,0.0,0.0,0.0,0.0,0.0
1615407372.882,0,1615407372,881999969,,0.0013521814361465165,-0.002059584488538131,-0.7491146911951916,0.662435739640179,-1.0,0.0,0.0,0.0,0.0,0.0,0.0,0.0,0.0,-6.067576452570441e-05,-1.849353707735438e-05,0.00014837425449252365,-1.0,0.0,0.0,0.0,0.0,0.0,0.0,0.0,0.0,0.0,0.0,0.0,-1.0,0.0,0.0,0.0,0.0,0.0,0.0,0.0,0.0
1615407372.902,0,1615407372,901999950,,0.0013432996321479215,-0.002062624042638273,-0.7491148489542907,0.6624355698513987,-1.0,0.0,0.0,0.0,0.0,0.0,0.0,0.0,0.0,-0.00016887256303847292,-0.00032145250059936997,0.0002791929791341837,-1.0,0.0,0.0,0.0,0.0,0.0,0.0,0.0,0.0,0.0,0.0,0.0,-1.0,0.0,0.0,0.0,0.0,0.0,0.0,0.0,0.0
1615407372.922,0,1615407372,921999931,,0.0013364871859575804,-0.0020680053112829724,-0.7491147933537154,0.6624356297291493,-1.0,0.0,0.0,0.0,0.0,0.0,0.0,0.0,0.0,-0.000127358359463907,-0.000498857635584785,0.0001590305520267173,-1.0,0.0,0.0,0.0,0.0,0.0,0.0,0.0,0.0,0.0,0.0,0.0,-1.0,0.0,0.0,0.0,0.0,0.0,0.0,0.0,0.0
1615407372.942,0,1615407372,941999912,,0.0013413793545595065,-0.002063036656274713,-0.7491145651237003,0.6624358934272141,-1.0,0.0,0.0,0.0,0.0,0.0,0.0,0.0,0.0,-0.00010010808407491571,-8.177438681778785e-05,0.00018380865594932688,-1.0,0.0,0.0,0.0,0.0,0.0,0.0,0.0,0.0,0.0,0.0,0.0,-1.0,0.0,0.0,0.0,0.0,0.0,0.0,0.0,0.0
1615407372.962,0,1615407372,961999893,,0.001341590205676047,-0.0020622080905340332,-0.7491144721339633,0.6624360007374033,-1.0,0.0,0.0,0.0,0.0,0.0,0.0,0.0,0.0,-4.8347065286429084e-05,-3.673870816928084e-05,7.702917759032687e-06,-1.0,0.0,0.0,0.0,0.0,0.0,0.0,0.0,0.0,0.0,0.0,0.0,-1.0,0.0,0.0,0.0,0.0,0.0,0.0,0.0,0.0
1615407372.982,0,1615407372,982000113,,0.0013353208932910506,-0.002058767023338946,-0.7491144817021174,0.6624360132877919,-1.0,0.0,0.0,0.0,0.0,0.0,0.0,0.0,0.0,-0.0002643724162527299,-9.590714612762485e-05,0.00039175882322610797,-1.0,0.0,0.0,0.0,0.0,0.0,0.0,0.0,0.0,0.0,0.0,0.0,-1.0,0.0,0.0,0.0,0.0,0.0,0.0,0.0,0.0
1615407373.002,0,1615407373,2000093,,0.0013352620873416782,-0.0020623494465226407,-0.7491144057454278,0.6624360881583922,-1.0,0.0,0.0,0.0,0.0,0.0,0.0,0.0,0.0,-6.49734662067251e-05,-0.0001234795373152326,0.00022514594284158324,-1.0,0.0,0.0,0.0,0.0,0.0,0.0,0.0,0.0,0.0,0.0,0.0,-1.0,0.0,0.0,0.0,0.0,0.0,0.0,0.0,0.0
1615407373.022,0,1615407373,22000074,,0.00133727324758418,-0.002068273525208812,-0.7491144115804012,0.6624360590331988,-1.0,0.0,0.0,0.0,0.0,0.0,0.0,0.0,0.0,0.00016586152772364988,-0.00016297362700019098,-0.0003490407737628233,-1.0,0.0,0.0,0.0,0.0,0.0,0.0,0.0,0.0,0.0,0.0,0.0,-1.0,0.0,0.0,0.0,0.0,0.0,0.0,0.0,0.0
1615407373.042,0,1615407373,42000055,,0.0013395556144800004,-0.0020697869770799826,-0.7491144555484086,0.6624359999736099,-1.0,0.0,0.0,0.0,0.0,0.0,0.0,0.0,0.0,0.00018346044947429088,-8.764522876840752e-05,-0.00024064036233720513,-1.0,0.0,0.0,0.0,0.0,0.0,0.0,0.0,0.0,0.0,0.0,0.0,-1.0,0.0,0.0,0.0,0.0,0.0,0.0,0.0,0.0
1615407373.062,0,1615407373,62000036,,0.0013379696602762415,-0.0020622075490148613,-0.7491146360662582,0.662435822679096,-1.0,0.0,0.0,0.0,0.0,0.0,0.0,0.0,0.0,-0.00010983226305012975,7.428191506049849e-05,-0.0001582753549382858,-1.0,0.0,0.0,0.0,0.0,0.0,0.0,0.0,0.0,0.0,0.0,0.0,-1.0,0.0,0.0,0.0,0.0,0.0,0.0,0.0,0.0
1615407373.082,0,1615407373,82000017,,0.0013442379967207167,-0.0020563746654266037,-0.7491145600915837,0.6624359140371516,-1.0,0.0,0.0,0.0,0.0,0.0,0.0,0.0,0.0,-0.00042723881364848456,0.00019303631629091425,5.424563217347776e-05,-1.0,0.0,0.0,0.0,0.0,0.0,0.0,0.0,0.0,0.0,0.0,0.0,-1.0,0.0,0.0,0.0,0.0,0.0,0.0,0.0,0.0
1615407373.102,0,1615407373,101999998,,0.0013485923299346005,-0.0020602297307375137,-0.7491146665902011,0.6624357727747167,-1.0,0.0,0.0,0.0,0.0,0.0,0.0,0.0,0.0,-8.299411577893363e-05,0.00015720658115996543,-0.00032492424977661354,-1.0,0.0,0.0,0.0,0.0,0.0,0.0,0.0,0.0,0.0,0.0,0.0,-1.0,0.0,0.0,0.0,0.0,0.0,0.0,0.0,0.0
1615407373.122,0,1615407373,121999979,,0.0013464656301121185,-0.0020614738646641388,-0.7491147101743822,0.662435723943209,-1.0,0.0,0.0,0.0,0.0,0.0,0.0,0.0,0.0,-5.8351019012541484e-05,-2.552992801573657e-06,-0.0003260647075597113,-1.0,0.0,0.0,0.0,0.0,0.0,0.0,0.0,0.0,0.0,0.0,0.0,-1.0,0.0,0.0,0.0,0.0,0.0,0.0,0.0,0.0
1615407373.142,0,1615407373,141999960,,0.0013487491847068017,-0.0020629898273279022,-0.7491145583298598,0.6624358862915475,-1.0,0.0,0.0,0.0,0.0,0.0,0.0,0.0,0.0,3.645011022954285e-05,-5.018937965613516e-06,-0.00024581457383303324,-1.0,0.0,0.0,0.0,0.0,0.0,0.0,0.0,0.0,0.0,0.0,0.0,-1.0,0.0,0.0,0.0,0.0,0.0,0.0,0.0,0.0
1615407373.162,0,1615407373,161999941,,0.001355445679853076,-0.002064775451127219,-0.7491146909276724,0.6624357171119952,-1.0,0.0,0.0,0.0,0.0,0.0,0.0,0.0,0.0,0.00019990055266751658,0.00010714828649507517,-0.000420549380744049,-1.0,0.0,0.0,0.0,0.0,0.0,0.0,0.0,0.0,0.0,0.0,0.0,-1.0,0.0,0.0,0.0,0.0,0.0,0.0,0.0,0.0
1615407373.182,0,1615407373,181999922,,0.0013535907537307727,-0.0020616075547363368,-0.7491147588321235,0.6624356539817667,-1.0,0.0,0.0,0.0,0.0,0.0,0.0,0.0,0.0,-1.024400531302646e-05,8.964284725060333e-05,-0.0002953251449846957,-1.0,0.0,0.0,0.0,0.0,0.0,0.0,0.0,0.0,0.0,0.0,0.0,-1.0,0.0,0.0,0.0,0.0,0.0,0.0,0.0,0.0
1615407373.202,0,1615407373,201999903,,0.0013538060130934993,-0.002060780981442969,-0.7491149058000984,0.6624354899151578,-1.0,0.0,0.0,0.0,0.0,0.0,0.0,0.0,0.0,-1.2988828566274478e-05,8.93895033867378e-05,-0.00036301698806014094,-1.0,0.0,0.0,0.0,0.0,0.0,0.0,0.0,0.0,0.0,0.0,0.0,-1.0,0.0,0.0,0.0,0.0,0.0,0.0,0.0,0.0
1615407373.222,0,1615407373,221999884,,0.0013540203023455599,-0.0020599551822199384,-0.7491148210941703,0.6624355878353135,-1.0,0.0,0.0,0.0,0.0,0.0,0.0,0.0,0.0,-2.4912992118397867e-05,9.933342309483952e-05,-0.00015867714861672198,-1.0,0.0,0.0,0.0,0.0,0.0,0.0,0.0,0.0,0.0,0.0,0.0,-1.0,0.0,0.0,0.0,0.0,0.0,0.0,0.0,0.0
1615407373.242,0,1615407373,242000103,,0.0013609863951043468,-0.0020573302771092414,-0.7491146387439784,0.662435787927888,-1.0,0.0,0.0,0.0,0.0,0.0,0.0,0.0,0.0,0.00010238244495986054,0.0003094774339266907,-8.370269438725945e-07,-1.0,0.0,0.0,0.0,0.0,0.0,0.0,0.0,0.0,0.0,0.0,0.0,-1.0,0.0,0.0,0.0,0.0,0.0,0.0,0.0,0.0
1615407373.262,0,1615407373,262000084,,0.001361471301937574,-0.002052093355264282,-0.7491147189362497,0.6624357124897622,-1.0,0.0,0.0,0.0,0.0,0.0,0.0,0.0,0.0,-7.422235243927763e-05,0.00035745296020641543,6.887071930961549e-05,-1.0,0.0,0.0,0.0,0.0,0.0,0.0,0.0,0.0,0.0,0.0,0.0,-1.0,0.0,0.0,0.0,0.0,0.0,0.0,0.0,0.0
1615407373.282,0,1615407373,282000065,,0.0013549330339514432,-0.0020530676235335455,-0.7491146904986927,0.6624357550350484,-1.0,0.0,0.0,0.0,0.0,0.0,0.0,0.0,0.0,-0.00016632428052882405,1.3934453425457316e-05,4.6105485809527135e-05,-1.0,0.0,0.0,0.0,0.0,0.0,0.0,0.0,0.0,0.0,0.0,0.0,-1.0,0.0,0.0,0.0,0.0,0.0,0.0,0.0,0.0
1615407373.302,0,1615407373,302000046,,0.0013574889367684055,-0.002050172413304736,-0.7491148084253364,0.6624356254118086,-1.0,0.0,0.0,0.0,0.0,0.0,0.0,0.0,0.0,-0.00012548773748489013,0.00017479928919011557,0.0005294980559938643,-1.0,0.0,0.0,0.0,0.0,0.0,0.0,0.0,0.0,0.0,0.0,0.0,-1.0,0.0,0.0,0.0,0.0,0.0,0.0,0.0,0.0
1615407373.322,0,1615407373,322000027,,0.0013603148266449236,-0.0020428659943880394,-0.7491146581907833,0.6624358120797874,-1.0,0.0,0.0,0.0,0.0,0.0,0.0,0.0,0.0,-0.00021120931380017437,0.00037147856743088327,0.00030428704765502,-1.0,0.0,0.0,0.0,0.0,0.0,0.0,0.0,0.0,0.0,0.0,0.0,-1.0,0.0,0.0,0.0,0.0,0.0,0.0,0.0,0.0
1615407373.342,0,1615407373,342000008,,0.0013704951224472889,-0.002046469959632568,-0.7491146680426036,0.6624357688313967,-1.0,0.0,0.0,0.0,0.0,0.0,0.0,0.0,0.0,-0.00015497700246172127,0.0002505074579168497,6.542386457022777e-05,-1.0,0.0,0.0,0.0,0.0,0.0,0.0,0.0,0.0,0.0,0.0,0.0,-1.0,0.0,0.0,0.0,0.0,0.0,0.0,0.0,0.0
1615407373.362,0,1615407373,361999989,,0.0013662977837585078,-0.00204537433143983,-0.7491146022788651,0.6624358552545208,-1.0,0.0,0.0,0.0,0.0,0.0,0.0,0.0,0.0,-0.00021930199963096612,0.00012638268920148497,-0.00012517189799799856,-1.0,0.0,0.0,0.0,0.0,0.0,0.0,0.0,0.0,0.0,0.0,0.0,-1.0,0.0,0.0,0.0,0.0,0.0,0.0,0.0,0.0
1615407373.382,0,1615407373,381999969,,0.0013729935047872258,-0.002047161631226926,-0.7491147045479337,0.6624357202386911,-1.0,0.0,0.0,0.0,0.0,0.0,0.0,0.0,0.0,3.212870256470877e-05,0.0002598038855178088,0.00013362926158057357,-1.0,0.0,0.0,0.0,0.0,0.0,0.0,0.0,0.0,0.0,0.0,0.0,-1.0,0.0,0.0,0.0,0.0,0.0,0.0,0.0,0.0
1615407373.402,0,1615407373,401999950,,0.0013802305079285244,-0.002040127538370949,-0.7491146786307956,0.6624357562082922,-1.0,0.0,0.0,0.0,0.0,0.0,0.0,0.0,0.0,2.610946055353682e-05,0.0005284456374825969,-4.657115957635971e-05,-1.0,0.0,0.0,0.0,0.0,0.0,0.0,0.0,0.0,0.0,0.0,0.0,-1.0,0.0,0.0,0.0,0.0,0.0,0.0,0.0,0.0
1615407373.422,0,1615407373,421999931,,0.0013809863426655408,-0.002030481426797855,-0.7491147579378543,0.6624356945859777,-1.0,0.0,0.0,0.0,0.0,0.0,0.0,0.0,0.0,-0.00021533668366199518,0.0005583269538171332,0.0001400746836444638,-1.0,0.0,0.0,0.0,0.0,0.0,0.0,0.0,0.0,0.0,0.0,0.0,-1.0,0.0,0.0,0.0,0.0,0.0,0.0,0.0,0.0
1615407373.442,0,1615407373,441999912,,0.0013817428426989003,-0.0020208357018922114,-0.7491147930485478,0.6624356827991786,-1.0,0.0,0.0,0.0,0.0,0.0,0.0,0.0,0.0,-0.0003737234466107458,0.0006004451034482953,0.0001725138948801368,-1.0,0.0,0.0,0.0,0.0,0.0,0.0,0.0,0.0,0.0,0.0,0.0,-1.0,0.0,0.0,0.0,0.0,0.0,0.0,0.0,0.0
1615407373.462,0,1615407373,461999893,,0.0013816870027258711,-0.002024423219281031,-0.7491148028327272,0.6624356608973734,-1.0,0.0,0.0,0.0,0.0,0.0,0.0,0.0,0.0,-0.0001703960518319592,0.0002882239343055809,-2.1077489200475124e-05,-1.0,0.0,0.0,0.0,0.0,0.0,0.0,0.0,0.0,0.0,0.0,0.0,-1.0,0.0,0.0,0.0,0.0,0.0,0.0,0.0,0.0
1615407373.482,0,1615407373,482000113,,0.0013845131419127513,-0.0020171195361337697,-0.7491147543608359,0.6624357320910772,-1.0,0.0,0.0,0.0,0.0,0.0,0.0,0.0,0.0,-0.0002530983913911157,0.0004445772725594037,-0.00016060150916523777,-1.0,0.0,0.0,0.0,0.0,0.0,0.0,0.0,0.0,0.0,0.0,0.0,-1.0,0.0,0.0,0.0,0.0,0.0,0.0,0.0,0.0
1615407373.502,0,1615407373,502000093,,0.0013803167674505572,-0.002016025841874695,-0.7491148678169008,0.662435615876059,-1.0,0.0,0.0,0.0,0.0,0.0,0.0,0.0,0.0,-0.0003049866814743256,0.0002310461048753414,-3.605369123580837e-05,-1.0,0.0,0.0,0.0,0.0,0.0,0.0,0.0,0.0,0.0,0.0,0.0,-1.0,0.0,0.0,0.0,0.0,0.0,0.0,0.0,0.0
1615407373.522,0,1615407373,522000074,,0.001380531449797293,-0.002015202935894048,-0.7491150837174646,0.6624353737814879,-1.0,0.0,0.0,0.0,0.0,0.0,0.0,0.0,0.0,-0.00020628952507413783,0.0001583077315191482,-6.683513735875685e-05,-1.0,0.0,0.0,0.0,0.0,0.0,0.0,0.0,0.0,0.0,0.0,0.0,-1.0,0.0,0.0,0.0,0.0,0.0,0.0,0.0,0.0
